{
  "resourceType": "Bundle",
  "identifier": {
    "system": "https://www.ehealth.fgov.be/hl7/bundle",
    "value": "5cc348cb-a079-45be-af92-bb05cf72e7ac"
  },
  "type": "document",
  "timestamp": "2022-04-04T15:57:23.052+02:00",
  "entry": [ {
    "fullUrl": "Composition/35318355",
    "resource": {
      "resourceType": "Composition",
      "id": "35318355",
      "meta": {
        "profile": [ "https://www.ehealth.fgov.be/standards/fhir/lab/StructureDefinition/be-laboratory-report-composition" ]
      },
      "text": {
        "status": "empty",
        "div": "<div xmlns=\"http://www.w3.org/1999/xhtml\">empty</div>"
      },
      "identifier": {
        "system": "https://www.ehealth.fgov.be/lab-report/diagnostic-report-id",
        "value": "5cc348cb-a079-45be-af92-bb05cf72e7ac"
      },
      "status": "preliminary",
      "type": {
        "coding": [ {
          "system": "http://loinc.org",
          "code": "11502-2",
          "display": "Laboratory report"
        } ]
      },
      "subject": {
        "reference": "Patient/20205"
      },
      "date": "2022-04-04T15:57:23+02:00",
      "author": [ {
        "reference": "Organization/4335"
      } ],
      "title": "Laboratory Report",
      "section": [ {
        "entry": [ {
          "reference": "DiagnosticReport/35318355"
        } ]
      } ]
    }
  }, {
    "fullUrl": "DiagnosticReport/35318355",
    "resource": {
      "resourceType": "DiagnosticReport",
      "id": "35318355",
      "meta": {
        "versionId": "1",
        "profile": [ "https://www.ehealth.fgov.be/standards/fhir/lab/StructureDefinition/be-laboratory-report" ]
      },
      "text": {
        "status": "empty",
        "div": "<div xmlns=\"http://www.w3.org/1999/xhtml\">empty</div>"
      },
      "extension": [ {
        "url": "https://www.ehealth.fgov.be/standards/fhir/lab/StructureDefinition/be-ext-note",
        "valueAnnotation": {
          "text": "Labgids: labo.uzgent.be"
        }
      }, {
        "url": "https://www.ehealth.fgov.be/standards/fhir/lab/StructureDefinition/be-ext-note",
        "valueAnnotation": {
          "text": "Uitslagen: 09-332.34.34"
        }
      }, {
        "url": "https://www.ehealth.fgov.be/standards/fhir/lab/StructureDefinition/be-ext-note",
        "valueAnnotation": {
          "text": "Elektronisch gehandtekend door: Dr. apr. biol. Oyaert Matthijs"
        }
      } ],
      "identifier": [ {
        "system": "https://www.ehealth.fgov.be/lab-report/diagnostic-report-id",
        "value": "5cc348cb-a079-45be-af92-bb05cf72e7ac"
      } ],
      "basedOn": [ {
        "reference": "ServiceRequest/00220405-0001"
      } ],
      "status": "registered",
      "category": [ {
        "coding": [ {
          "system": "http://terminology.hl7.org/CodeSystem/v2-0074",
          "code": "LAB",
          "display": "Laboratory"
        } ]
      } ],
      "code": {
        "coding": [ {
          "system": "http://loinc.org",
          "code": "11502-2"
        } ]
      },
      "subject": {
        "reference": "Patient/20205"
      },
      "effectiveDateTime": "2022-04-04T15:57:23+02:00",
      "issued": "2022-04-04T15:57:20.000+02:00",
      "performer": [ {
        "reference": "Organization/4335"
      } ],
      "resultsInterpreter": [ {
        "reference": "Practitioner/65175"
      } ],
      "specimen": [ {
        "reference": "Specimen/00220405000101"
      }, {
        "reference": "Specimen/00220405000108"
      }, {
        "reference": "Specimen/00220405000103"
      }, {
        "reference": "Specimen/00220405000104"
      }, {
        "reference": "Specimen/00220405000107"
      }, {
        "reference": "Specimen/00220405000106"
      }, {
        "reference": "Specimen/00220405000102"
      }, {
        "reference": "Specimen/00220405000105"
      } ],
      "result": [ {
        "reference": "Observation/389061022"
      }, {
        "reference": "Observation/abab36be-89b0-4a47-b49d-92b3d1344157"
      }, {
        "reference": "Observation/729ba6d0-c2dd-483f-a439-b48a17b84fa9"
      }, {
        "reference": "Observation/5c1b8c2b-e508-44cd-85c2-6832525bd938"
      } ]
    }
  }, {
    "fullUrl": "Patient/20205",
    "resource": {
      "resourceType": "Patient",
      "id": "20205",
      "meta": {
        "versionId": "1",
        "profile": [ "https://www.ehealth.fgov.be/standards/fhir/core/StructureDefinition/be-patient" ]
      },
      "text": {
        "status": "empty",
        "div": "<div xmlns=\"http://www.w3.org/1999/xhtml\">empty</div>"
      },
      "identifier": [ {
        "system": "https://www.ehealth.fgov.be/standards/fhir/core/NamingSystem/ssin",
        "value": "11111105124"
      } ],
      "name": [ {
        "family": "Xbhelpdesk",
        "given": [ "Test" ]
      } ],
      "telecom": [ {
        "system": "phone",
        "value": "09/332 20 01"
      }, {
        "system": "phone",
        "value": "0475/11.1111"
      }, {
        "system": "email",
        "value": "bart.hostens@uzgent.be"
      } ],
      "gender": "female",
      "birthDate": "1911-11-11",
      "address": [ {
        "line": [ "C. Heymanslaan 10" ],
        "city": "GENT",
        "postalCode": "9000",
        "country": "B"
      } ],
      "generalPractitioner": [ {
        "reference": "Practitioner/5898464"
      } ]
    }
  }, {
    "fullUrl": "ServiceRequest/00220405-0001",
    "resource": {
      "resourceType": "ServiceRequest",
      "id": "00220405-0001",
      "text": {
        "status": "empty",
        "div": "<div xmlns=\"http://www.w3.org/1999/xhtml\">empty</div>"
      },
      "identifier": [ {
        "system": "https://mips.be/UZG",
        "value": "00220405-0001"
      }, {
        "value": "000029081189"
      } ],
      "status": "active",
      "intent": "order",
      "priority": "routine",
      "subject": {
        "reference": "Patient/20205"
      },
      "authoredOn": "2022-04-04T15:38:00+02:00",
      "requester": {
        "reference": "Practitioner/65175"
      }
    }
  }, {
    "fullUrl": "Practitioner/5898464",
    "resource": {
      "resourceType": "Practitioner",
      "id": "5898464",
      "meta": {
        "versionId": "1",
        "profile": [ "https://www.ehealth.fgov.be/standards/fhir/core/StructureDefinition/be-practitioner" ]
      },
      "text": {
        "status": "empty",
        "div": "<div xmlns=\"http://www.w3.org/1999/xhtml\">empty</div>"
      },
      "identifier": [ {
        "system": "https://www.ehealth.fgov.be/standards/fhir/core/NamingSystem/nihdi",
        "value": "1-19981-08-004"
      } ],
      "name": [ {
        "family": "Janssens",
        "given": [ "Annemie" ],
        "prefix": [ "Dr." ]
      } ],
      "address": [ {
        "line": [ "Truweelstraat 14" ],
        "city": "SINT-NIKLAAS",
        "postalCode": "9100",
        "country": "B"
      } ],
      "gender": "unknown"
    }
  }, {
    "fullUrl": "Practitioner/65175",
    "resource": {
      "resourceType": "Practitioner",
      "id": "65175",
      "meta": {
        "versionId": "1",
        "profile": [ "https://www.ehealth.fgov.be/standards/fhir/core/StructureDefinition/be-practitioner" ]
      },
      "text": {
        "status": "empty",
        "div": "<div xmlns=\"http://www.w3.org/1999/xhtml\">empty</div>"
      },
      "identifier": [ {
        "system": "https://www.ehealth.fgov.be/standards/fhir/core/NamingSystem/nihdi",
        "value": "1-45720-71-862"
      } ],
      "name": [ {
        "family": "Fiers",
        "given": [ "Tom" ],
        "prefix": [ "Dr." ]
      } ],
      "telecom": [ {
        "system": "fax"
      }, {
        "system": "email",
        "value": "tom.fiers@uzgent.be"
      } ],
      "address": [ {
        "line": [ "Klinische biologie UZ Gent" ],
        "city": "GENT",
        "postalCode": "9000",
        "country": "B"
      } ],
      "gender": "unknown"
    }
  }, {
    "fullUrl": "Organization/4335",
    "resource": {
      "resourceType": "Organization",
      "id": "4335",
      "text": {
        "status": "empty",
        "div": "<div xmlns=\"http://www.w3.org/1999/xhtml\">empty</div>"
      },
      "identifier": [ {
        "system": "https://www.ehealth.fgov.be/standards/fhir/core/NamingSystem/nihdi",
        "value": "8-44700-73-998"
      } ],
      "name": "Lab UZGent",
      "telecom": [ {
        "system": "phone",
        "value": "09/2406310"
      }, {
        "system": "fax",
        "value": "092404985"
      } ],
      "address": [ {
        "line": [ "C. Heymanslaan 10" ],
        "city": "GENT",
        "postalCode": "9000",
        "country": "B"
      } ]
    }
  }, {
    "fullUrl": "Observation/1afdaa8d-7474-4c14-8f76-bad735dad7f5",
    "resource": {
      "resourceType": "Observation",
      "id": "1afdaa8d-7474-4c14-8f76-bad735dad7f5",
      "meta": {
        "versionId": "1",
        "profile": [ "https://www.ehealth.fgov.be/standards/fhir/lab/StructureDefinition/be-observation-laboratory" ]
      },
      "text": {
        "status": "empty",
        "div": "<div xmlns=\"http://www.w3.org/1999/xhtml\">empty</div>"
      },
      "status": "unknown",
      "code": {
        "text": "Screening"
      },
      "subject": {
        "reference": "Patient/20205"
      },
      "hasMember": [ {
        "reference": "Observation/389061023"
      }, {
        "reference": "Observation/389061034"
      }, {
        "reference": "Observation/389061035"
      }, {
        "reference": "Observation/389061037"
      }, {
        "reference": "Observation/389061036"
      } ]
    }
  }, {
    "fullUrl": "Observation/abab36be-89b0-4a47-b49d-92b3d1344157",
    "resource": {
      "resourceType": "Observation",
      "id": "abab36be-89b0-4a47-b49d-92b3d1344157",
      "meta": {
        "versionId": "1",
        "profile": [ "https://www.ehealth.fgov.be/standards/fhir/lab/StructureDefinition/be-observation-laboratory" ]
      },
      "text": {
        "status": "empty",
        "div": "<div xmlns=\"http://www.w3.org/1999/xhtml\">empty</div>"
      },
      "status": "unknown",
      "code": {
        "coding": [ {
          "system": "http://loinc.org",
          "code": "18723-7"
        } ],
        "text": "HEMATOLOGIE"
      },
      "subject": {
        "reference": "Patient/20205"
      },
      "hasMember": [ {
        "reference": "Observation/1afdaa8d-7474-4c14-8f76-bad735dad7f5"
      } ]
    }
  }, {
    "fullUrl": "Observation/5292f292-1f7f-4e06-ab19-ed5eff022b76",
    "resource": {
      "resourceType": "Observation",
      "id": "5292f292-1f7f-4e06-ab19-ed5eff022b76",
      "meta": {
        "versionId": "1",
        "profile": [ "https://www.ehealth.fgov.be/standards/fhir/lab/StructureDefinition/be-observation-laboratory" ]
      },
      "text": {
        "status": "empty",
        "div": "<div xmlns=\"http://www.w3.org/1999/xhtml\">empty</div>"
      },
      "status": "unknown",
      "code": {
        "text": "Ionen"
      },
      "subject": {
        "reference": "Patient/20205"
      },
      "hasMember": [ {
        "reference": "Observation/389061031"
      } ]
    }
  }, {
    "fullUrl": "Observation/729ba6d0-c2dd-483f-a439-b48a17b84fa9",
    "resource": {
      "resourceType": "Observation",
      "id": "729ba6d0-c2dd-483f-a439-b48a17b84fa9",
      "meta": {
        "versionId": "1",
        "profile": [ "https://www.ehealth.fgov.be/standards/fhir/lab/StructureDefinition/be-observation-laboratory" ]
      },
      "text": {
        "status": "empty",
        "div": "<div xmlns=\"http://www.w3.org/1999/xhtml\">empty</div>"
      },
      "status": "unknown",
      "code": {
        "coding": [ {
          "system": "http://loinc.org",
          "code": "18719-5"
        } ],
        "text": "SCHEIKUNDE"
      },
      "subject": {
        "reference": "Patient/20205"
      },
      "hasMember": [ {
        "reference": "Observation/5292f292-1f7f-4e06-ab19-ed5eff022b76"
      } ]
    }
  }, {
    "fullUrl": "Observation/1f754e07-351b-41b1-94ce-f02685157ede",
    "resource": {
      "resourceType": "Observation",
      "id": "1f754e07-351b-41b1-94ce-f02685157ede",
      "meta": {
        "versionId": "1",
        "profile": [ "https://www.ehealth.fgov.be/standards/fhir/lab/StructureDefinition/be-observation-laboratory" ]
      },
      "text": {
        "status": "empty",
        "div": "<div xmlns=\"http://www.w3.org/1999/xhtml\">empty</div>"
      },
      "status": "unknown",
      "code": {
        "text": "Cytologie"
      },
      "subject": {
        "reference": "Patient/20205"
      },
      "hasMember": [ {
        "reference": "Observation/389061025"
      } ]
    }
  }, {
    "fullUrl": "Observation/0cd9d31e-6c57-42cc-a75a-2d8c357ff217",
    "resource": {
      "resourceType": "Observation",
      "id": "0cd9d31e-6c57-42cc-a75a-2d8c357ff217",
      "meta": {
        "versionId": "1",
        "profile": [ "https://www.ehealth.fgov.be/standards/fhir/lab/StructureDefinition/be-observation-laboratory" ]
      },
      "text": {
        "status": "empty",
        "div": "<div xmlns=\"http://www.w3.org/1999/xhtml\">empty</div>"
      },
      "status": "unknown",
      "code": {
        "text": "Ascitesvocht"
      },
      "subject": {
        "reference": "Patient/20205"
      },
      "hasMember": [ {
        "reference": "Observation/1f754e07-351b-41b1-94ce-f02685157ede"
      } ]
    }
  }, {
    "fullUrl": "Observation/5a8e44f7-b65c-4b68-9305-27a1907abc40",
    "resource": {
      "resourceType": "Observation",
      "id": "5a8e44f7-b65c-4b68-9305-27a1907abc40",
      "meta": {
        "versionId": "1",
        "profile": [ "https://www.ehealth.fgov.be/standards/fhir/lab/StructureDefinition/be-observation-laboratory" ]
      },
      "text": {
        "status": "empty",
        "div": "<div xmlns=\"http://www.w3.org/1999/xhtml\">empty</div>"
      },
      "status": "unknown",
      "code": {
        "text": "Cytologie"
      },
      "subject": {
        "reference": "Patient/20205"
      },
      "hasMember": [ {
        "reference": "Observation/389061026"
      } ]
    }
  }, {
    "fullUrl": "Observation/7e9c6805-27ce-4cf9-a849-4d844f6aef90",
    "resource": {
      "resourceType": "Observation",
      "id": "7e9c6805-27ce-4cf9-a849-4d844f6aef90",
      "meta": {
        "versionId": "1",
        "profile": [ "https://www.ehealth.fgov.be/standards/fhir/lab/StructureDefinition/be-observation-laboratory" ]
      },
      "text": {
        "status": "empty",
        "div": "<div xmlns=\"http://www.w3.org/1999/xhtml\">empty</div>"
      },
      "status": "unknown",
      "code": {
        "text": "Pericardvocht"
      },
      "subject": {
        "reference": "Patient/20205"
      },
      "hasMember": [ {
        "reference": "Observation/5a8e44f7-b65c-4b68-9305-27a1907abc40"
      } ]
    }
  }, {
    "fullUrl": "Observation/1ba39c91-6864-4113-aaef-2b2e14aca0a5",
    "resource": {
      "resourceType": "Observation",
      "id": "1ba39c91-6864-4113-aaef-2b2e14aca0a5",
      "meta": {
        "versionId": "1",
        "profile": [ "https://www.ehealth.fgov.be/standards/fhir/lab/StructureDefinition/be-observation-laboratory" ]
      },
      "text": {
        "status": "empty",
        "div": "<div xmlns=\"http://www.w3.org/1999/xhtml\">empty</div>"
      },
      "status": "unknown",
      "code": {
        "text": "Neusvocht"
      },
      "subject": {
        "reference": "Patient/20205"
      },
      "hasMember": [ {
        "reference": "Observation/389061030"
      } ]
    }
  }, {
    "fullUrl": "Observation/900edd58-5662-4d88-8a0b-2320d3220593",
    "resource": {
      "resourceType": "Observation",
      "id": "900edd58-5662-4d88-8a0b-2320d3220593",
      "meta": {
        "versionId": "1",
        "profile": [ "https://www.ehealth.fgov.be/standards/fhir/lab/StructureDefinition/be-observation-laboratory" ]
      },
      "text": {
        "status": "empty",
        "div": "<div xmlns=\"http://www.w3.org/1999/xhtml\">empty</div>"
      },
      "status": "unknown",
      "code": {
        "coding": [ {
          "system": "http://loinc.org",
          "code": "18722-9"
        } ],
        "text": "Sperma"
      },
      "subject": {
        "reference": "Patient/20205"
      },
      "hasMember": [ {
        "reference": "Observation/389061029"
      } ]
    }
  }, {
    "fullUrl": "Observation/6e32f698-1432-43df-b819-f447c83f9535",
    "resource": {
      "resourceType": "Observation",
      "id": "6e32f698-1432-43df-b819-f447c83f9535",
      "meta": {
        "versionId": "1",
        "profile": [ "https://www.ehealth.fgov.be/standards/fhir/lab/StructureDefinition/be-observation-laboratory" ]
      },
      "text": {
        "status": "empty",
        "div": "<div xmlns=\"http://www.w3.org/1999/xhtml\">empty</div>"
      },
      "status": "unknown",
      "code": {
        "text": "Cytologie"
      },
      "subject": {
        "reference": "Patient/20205"
      },
      "hasMember": [ {
        "reference": "Observation/389061024"
      } ]
    }
  }, {
    "fullUrl": "Observation/5a98841d-bc8d-4764-9b32-c00b54c8c575",
    "resource": {
      "resourceType": "Observation",
      "id": "5a98841d-bc8d-4764-9b32-c00b54c8c575",
      "meta": {
        "versionId": "1",
        "profile": [ "https://www.ehealth.fgov.be/standards/fhir/lab/StructureDefinition/be-observation-laboratory" ]
      },
      "text": {
        "status": "empty",
        "div": "<div xmlns=\"http://www.w3.org/1999/xhtml\">empty</div>"
      },
      "status": "unknown",
      "code": {
        "text": "Lumbaalvocht - cerebrospinaalvocht"
      },
      "subject": {
        "reference": "Patient/20205"
      },
      "hasMember": [ {
        "reference": "Observation/6e32f698-1432-43df-b819-f447c83f9535"
      } ]
    }
  }, {
    "fullUrl": "Observation/fe062a34-f1c7-493c-ac77-95960bbbd3c5",
    "resource": {
      "resourceType": "Observation",
      "id": "fe062a34-f1c7-493c-ac77-95960bbbd3c5",
      "meta": {
        "versionId": "1",
        "profile": [ "https://www.ehealth.fgov.be/standards/fhir/lab/StructureDefinition/be-observation-laboratory" ]
      },
      "text": {
        "status": "empty",
        "div": "<div xmlns=\"http://www.w3.org/1999/xhtml\">empty</div>"
      },
      "status": "unknown",
      "code": {
        "text": "Faeces"
      },
      "subject": {
        "reference": "Patient/20205"
      },
      "hasMember": [ {
        "reference": "Observation/389061027"
      } ]
    }
  }, {
    "fullUrl": "Observation/5c1b8c2b-e508-44cd-85c2-6832525bd938",
    "resource": {
      "resourceType": "Observation",
      "id": "5c1b8c2b-e508-44cd-85c2-6832525bd938",
      "meta": {
        "versionId": "1",
        "profile": [ "https://www.ehealth.fgov.be/standards/fhir/lab/StructureDefinition/be-observation-laboratory" ]
      },
      "text": {
        "status": "empty",
        "div": "<div xmlns=\"http://www.w3.org/1999/xhtml\">empty</div>"
      },
      "status": "unknown",
      "code": {
        "text": "ANDERE LICHAAMSVOCHTEN"
      },
      "subject": {
        "reference": "Patient/20205"
      },
      "hasMember": [ {
        "reference": "Observation/0cd9d31e-6c57-42cc-a75a-2d8c357ff217"
      }, {
        "reference": "Observation/7e9c6805-27ce-4cf9-a849-4d844f6aef90"
      }, {
        "reference": "Observation/1ba39c91-6864-4113-aaef-2b2e14aca0a5"
      }, {
        "reference": "Observation/900edd58-5662-4d88-8a0b-2320d3220593"
      }, {
        "reference": "Observation/5a98841d-bc8d-4764-9b32-c00b54c8c575"
      }, {
        "reference": "Observation/fe062a34-f1c7-493c-ac77-95960bbbd3c5"
      } ]
    }
  }, {
    "fullUrl": "ServiceRequest/275723147",
    "resource": {
      "resourceType": "ServiceRequest",
      "id": "275723147",
      "text": {
        "status": "empty",
        "div": "<div xmlns=\"http://www.w3.org/1999/xhtml\">empty</div>"
      },
      "identifier": [ {
        "system": "https://mips.be/UZG",
        "value": "275723147"
      } ],
      "status": "active",
      "intent": "order",
      "priority": "routine",
      "subject": {
        "reference": "Patient/20205"
      }
    }
  }, {
    "fullUrl": "ServiceRequest/275723145",
    "resource": {
      "resourceType": "ServiceRequest",
      "id": "275723145",
      "text": {
        "status": "empty",
        "div": "<div xmlns=\"http://www.w3.org/1999/xhtml\">empty</div>"
      },
      "identifier": [ {
        "system": "https://mips.be/UZG",
        "value": "275723145"
      } ],
      "status": "active",
      "intent": "order",
      "priority": "routine",
      "subject": {
        "reference": "Patient/20205"
      }
    }
  }, {
    "fullUrl": "ServiceRequest/275723167",
    "resource": {
      "resourceType": "ServiceRequest",
      "id": "275723167",
      "text": {
        "status": "empty",
        "div": "<div xmlns=\"http://www.w3.org/1999/xhtml\">empty</div>"
      },
      "identifier": [ {
        "system": "https://mips.be/UZG",
        "value": "275723167"
      } ],
      "status": "active",
      "intent": "order",
      "priority": "routine",
      "subject": {
        "reference": "Patient/20205"
      }
    }
  }, {
    "fullUrl": "ServiceRequest/275723169",
    "resource": {
      "resourceType": "ServiceRequest",
      "id": "275723169",
      "text": {
        "status": "empty",
        "div": "<div xmlns=\"http://www.w3.org/1999/xhtml\">empty</div>"
      },
      "identifier": [ {
        "system": "https://mips.be/UZG",
        "value": "275723169"
      } ],
      "status": "active",
      "intent": "order",
      "priority": "routine",
      "subject": {
        "reference": "Patient/20205"
      }
    }
  }, {
    "fullUrl": "ServiceRequest/275723173",
    "resource": {
      "resourceType": "ServiceRequest",
      "id": "275723173",
      "text": {
        "status": "empty",
        "div": "<div xmlns=\"http://www.w3.org/1999/xhtml\">empty</div>"
      },
      "identifier": [ {
        "system": "https://mips.be/UZG",
        "value": "275723173"
      } ],
      "status": "active",
      "intent": "order",
      "priority": "routine",
      "subject": {
        "reference": "Patient/20205"
      }
    }
  }, {
    "fullUrl": "ServiceRequest/275723171",
    "resource": {
      "resourceType": "ServiceRequest",
      "id": "275723171",
      "text": {
        "status": "empty",
        "div": "<div xmlns=\"http://www.w3.org/1999/xhtml\">empty</div>"
      },
      "identifier": [ {
        "system": "https://mips.be/UZG",
        "value": "275723171"
      } ],
      "status": "active",
      "intent": "order",
      "priority": "routine",
      "subject": {
        "reference": "Patient/20205"
      }
    }
  }, {
    "fullUrl": "ServiceRequest/275723161",
    "resource": {
      "resourceType": "ServiceRequest",
      "id": "275723161",
      "text": {
        "status": "empty",
        "div": "<div xmlns=\"http://www.w3.org/1999/xhtml\">empty</div>"
      },
      "identifier": [ {
        "system": "https://mips.be/UZG",
        "value": "275723161"
      } ],
      "status": "active",
      "intent": "order",
      "priority": "routine",
      "subject": {
        "reference": "Patient/20205"
      }
    }
  }, {
    "fullUrl": "ServiceRequest/275723151",
    "resource": {
      "resourceType": "ServiceRequest",
      "id": "275723151",
      "text": {
        "status": "empty",
        "div": "<div xmlns=\"http://www.w3.org/1999/xhtml\">empty</div>"
      },
      "identifier": [ {
        "system": "https://mips.be/UZG",
        "value": "275723151"
      } ],
      "status": "active",
      "intent": "order",
      "priority": "routine",
      "subject": {
        "reference": "Patient/20205"
      }
    }
  }, {
    "fullUrl": "ServiceRequest/275723153",
    "resource": {
      "resourceType": "ServiceRequest",
      "id": "275723153",
      "text": {
        "status": "empty",
        "div": "<div xmlns=\"http://www.w3.org/1999/xhtml\">empty</div>"
      },
      "identifier": [ {
        "system": "https://mips.be/UZG",
        "value": "275723153"
      } ],
      "status": "active",
      "intent": "order",
      "priority": "routine",
      "subject": {
        "reference": "Patient/20205"
      }
    }
  }, {
    "fullUrl": "ServiceRequest/275723159",
    "resource": {
      "resourceType": "ServiceRequest",
      "id": "275723159",
      "text": {
        "status": "empty",
        "div": "<div xmlns=\"http://www.w3.org/1999/xhtml\">empty</div>"
      },
      "identifier": [ {
        "system": "https://mips.be/UZG",
        "value": "275723159"
      } ],
      "status": "active",
      "intent": "order",
      "priority": "routine",
      "subject": {
        "reference": "Patient/20205"
      }
    }
  }, {
    "fullUrl": "ServiceRequest/275723157",
    "resource": {
      "resourceType": "ServiceRequest",
      "id": "275723157",
      "text": {
        "status": "empty",
        "div": "<div xmlns=\"http://www.w3.org/1999/xhtml\">empty</div>"
      },
      "identifier": [ {
        "system": "https://mips.be/UZG",
        "value": "275723157"
      } ],
      "status": "active",
      "intent": "order",
      "priority": "routine",
      "subject": {
        "reference": "Patient/20205"
      }
    }
  }, {
    "fullUrl": "ServiceRequest/275723149",
    "resource": {
      "resourceType": "ServiceRequest",
      "id": "275723149",
      "text": {
        "status": "empty",
        "div": "<div xmlns=\"http://www.w3.org/1999/xhtml\">empty</div>"
      },
      "identifier": [ {
        "system": "https://mips.be/UZG",
        "value": "275723149"
      } ],
      "status": "active",
      "intent": "order",
      "priority": "routine",
      "subject": {
        "reference": "Patient/20205"
      }
    }
  }, {
    "fullUrl": "ServiceRequest/275723155",
    "resource": {
      "resourceType": "ServiceRequest",
      "id": "275723155",
      "text": {
        "status": "empty",
        "div": "<div xmlns=\"http://www.w3.org/1999/xhtml\">empty</div>"
      },
      "identifier": [ {
        "system": "https://mips.be/UZG",
        "value": "275723155"
      } ],
      "status": "active",
      "intent": "order",
      "priority": "routine",
      "subject": {
        "reference": "Patient/20205"
      }
    }
  }, {
    "fullUrl": "Observation/389061022",
    "resource": {
      "resourceType": "Observation",
      "id": "389061022",
      "meta": {
        "versionId": "1",
        "profile": [ "https://www.ehealth.fgov.be/standards/fhir/lab/StructureDefinition/be-observation-laboratory" ]
      },
      "text": {
        "status": "empty",
        "div": "<div xmlns=\"http://www.w3.org/1999/xhtml\">empty</div>"
      },
      "basedOn": [ {
        "reference": "ServiceRequest/275723147"
      } ],
      "status": "final",
      "code": {
        "coding": [ {
          "system": "https://mips.be/UZG",
          "code": "OCSOP"
        } ],
        "text": "Opmerkingen / Inlichtingen"
      },
      "subject": {
        "reference": "Patient/20205"
      },
      "issued": "2022-04-04T15:39:45.000+02:00",
      "valueString": "scenario 5 specimens",
      "note": [ {
        "extension": [ {
          "url": "https://www.ehealth.fgov.be/standards/fhir/lab/StructureDefinition/annotation-code",
          "valueCodeableConcept": {
            "coding": [ {
              "system": "https://www.ehealth.fgov.be/standards/fhir/lab/CodeSystem/be-cs-coded-annotation-types",
              "code": "lab-test-accreditation"
            } ]
          }
        } ],
        "text": "No"
      } ]
    }
  }, {
    "fullUrl": "Observation/389061023",
    "resource": {
      "resourceType": "Observation",
      "id": "389061023",
      "meta": {
        "versionId": "1",
        "profile": [ "https://www.ehealth.fgov.be/standards/fhir/lab/StructureDefinition/be-observation-laboratory" ]
      },
      "text": {
        "status": "empty",
        "div": "<div xmlns=\"http://www.w3.org/1999/xhtml\">empty</div>"
      },
      "basedOn": [ {
        "reference": "ServiceRequest/275723145"
      } ],
      "status": "preliminary",
      "code": {
        "coding": [ {
          "system": "http://loinc.org",
          "code": "789-8",
          "display": "Erythrocytes (blood)"
        } ]
      },
      "subject": {
        "reference": "Patient/20205"
      },
      "issued": "2022-04-04T15:50:57.000+02:00",
      "valueQuantity": {
        "value": 5,
        "system": "http://unitsofmeasure.org",
        "code": "10*6/uL"
      },
      "note": [ {
        "extension": [ {
          "url": "https://www.ehealth.fgov.be/standards/fhir/lab/StructureDefinition/annotation-code",
          "valueCodeableConcept": {
            "coding": [ {
              "system": "https://www.ehealth.fgov.be/standards/fhir/lab/CodeSystem/be-cs-coded-annotation-types",
              "code": "lab-test-accreditation"
            } ]
          }
        } ],
        "text": "No"
      } ],
      "specimen": {
        "reference": "Specimen/00220405000101"
      },
      "referenceRange": [ {
        "low": {
          "value": 3.81,
          "system": "http://unitsofmeasure.org",
          "code": "10*6/uL"
        },
        "high": {
          "value": 5.18,
          "system": "http://unitsofmeasure.org",
          "code": "10*6/uL"
        }
      } ]
    }
  }, {
    "fullUrl": "Observation/389061034",
    "resource": {
      "resourceType": "Observation",
      "id": "389061034",
      "meta": {
        "versionId": "1",
        "profile": [ "https://www.ehealth.fgov.be/standards/fhir/lab/StructureDefinition/be-observation-laboratory" ]
      },
      "text": {
        "status": "empty",
        "div": "<div xmlns=\"http://www.w3.org/1999/xhtml\">empty</div>"
      },
      "basedOn": [ {
        "reference": "ServiceRequest/275723167"
      } ],
      "status": "registered",
      "code": {
        "coding": [ {
          "system": "http://loinc.org",
          "code": "787-2",
          "display": "Mean corpuscular volume (erythrocytes)"
        } ]
      },
      "subject": {
        "reference": "Patient/20205"
      },
      "valueString": "volgt",
      "note": [ {
        "extension": [ {
          "url": "https://www.ehealth.fgov.be/standards/fhir/lab/StructureDefinition/annotation-code",
          "valueCodeableConcept": {
            "coding": [ {
              "system": "https://www.ehealth.fgov.be/standards/fhir/lab/CodeSystem/be-cs-coded-annotation-types",
              "code": "lab-test-accreditation"
            } ]
          }
        } ],
        "text": "No"
      } ],
      "specimen": {
        "reference": "Specimen/00220405000101"
      },
      "referenceRange": [ {
        "low": {
          "value": 83.9,
          "system": "http://unitsofmeasure.org",
          "code": "fL"
        },
        "high": {
          "value": 98,
          "system": "http://unitsofmeasure.org",
          "code": "fL"
        }
      } ]
    }
  }, {
    "fullUrl": "Observation/389061035",
    "resource": {
      "resourceType": "Observation",
      "id": "389061035",
      "meta": {
        "versionId": "1",
        "profile": [ "https://www.ehealth.fgov.be/standards/fhir/lab/StructureDefinition/be-observation-laboratory" ]
      },
      "text": {
        "status": "empty",
        "div": "<div xmlns=\"http://www.w3.org/1999/xhtml\">empty</div>"
      },
      "basedOn": [ {
        "reference": "ServiceRequest/275723169"
      } ],
      "status": "registered",
      "code": {
        "coding": [ {
          "system": "http://loinc.org",
          "code": "785-6",
          "display": "Mean corpuscular hemoglobin (erythrocytes)"
        } ]
      },
      "subject": {
        "reference": "Patient/20205"
      },
      "valueString": "volgt",
      "note": [ {
        "extension": [ {
          "url": "https://www.ehealth.fgov.be/standards/fhir/lab/StructureDefinition/annotation-code",
          "valueCodeableConcept": {
            "coding": [ {
              "system": "https://www.ehealth.fgov.be/standards/fhir/lab/CodeSystem/be-cs-coded-annotation-types",
              "code": "lab-test-accreditation"
            } ]
          }
        } ],
        "text": "No"
      } ],
      "specimen": {
        "reference": "Specimen/00220405000101"
      },
      "referenceRange": [ {
        "low": {
          "value": 27.7,
          "system": "http://unitsofmeasure.org",
          "code": "pg/{cell}"
        },
        "high": {
          "value": 32.8,
          "system": "http://unitsofmeasure.org",
          "code": "pg/{cell}"
        }
      } ]
    }
  }, {
    "fullUrl": "Observation/389061037",
    "resource": {
      "resourceType": "Observation",
      "id": "389061037",
      "meta": {
        "versionId": "1",
        "profile": [ "https://www.ehealth.fgov.be/standards/fhir/lab/StructureDefinition/be-observation-laboratory" ]
      },
      "text": {
        "status": "empty",
        "div": "<div xmlns=\"http://www.w3.org/1999/xhtml\">empty</div>"
      },
      "basedOn": [ {
        "reference": "ServiceRequest/275723173"
      } ],
      "status": "registered",
      "code": {
        "coding": [ {
          "system": "http://loinc.org",
          "code": "786-4",
          "display": "Mean corpuscular hemoglobin concentration (erythrocytes)"
        } ]
      },
      "subject": {
        "reference": "Patient/20205"
      },
      "valueString": "volgt",
      "note": [ {
        "extension": [ {
          "url": "https://www.ehealth.fgov.be/standards/fhir/lab/StructureDefinition/annotation-code",
          "valueCodeableConcept": {
            "coding": [ {
              "system": "https://www.ehealth.fgov.be/standards/fhir/lab/CodeSystem/be-cs-coded-annotation-types",
              "code": "lab-test-accreditation"
            } ]
          }
        } ],
        "text": "No"
      } ],
      "specimen": {
        "reference": "Specimen/00220405000101"
      },
      "referenceRange": [ {
        "low": {
          "value": 31.7,
          "system": "http://unitsofmeasure.org",
          "code": "g/dL{RBC}"
        },
        "high": {
          "value": 35.4,
          "system": "http://unitsofmeasure.org",
          "code": "g/dL{RBC}"
        }
      } ]
    }
  }, {
    "fullUrl": "Observation/389061036",
    "resource": {
      "resourceType": "Observation",
      "id": "389061036",
      "meta": {
        "versionId": "1",
        "profile": [ "https://www.ehealth.fgov.be/standards/fhir/lab/StructureDefinition/be-observation-laboratory" ]
      },
      "text": {
        "status": "empty",
        "div": "<div xmlns=\"http://www.w3.org/1999/xhtml\">empty</div>"
      },
      "basedOn": [ {
        "reference": "ServiceRequest/275723171"
      } ],
      "status": "registered",
      "code": {
        "coding": [ {
          "system": "http://loinc.org",
          "code": "788-0",
          "display": "Erythrocyte distribution width (erythrocytes)"
        } ]
      },
      "subject": {
        "reference": "Patient/20205"
      },
      "valueString": "volgt",
      "note": [ {
        "extension": [ {
          "url": "https://www.ehealth.fgov.be/standards/fhir/lab/StructureDefinition/annotation-code",
          "valueCodeableConcept": {
            "coding": [ {
              "system": "https://www.ehealth.fgov.be/standards/fhir/lab/CodeSystem/be-cs-coded-annotation-types",
              "code": "lab-test-accreditation"
            } ]
          }
        } ],
        "text": "No"
      } ],
      "specimen": {
        "reference": "Specimen/00220405000101"
      },
      "referenceRange": [ {
        "low": {
          "value": 11.5,
          "system": "http://unitsofmeasure.org",
          "code": "%"
        },
        "high": {
          "value": 13.9,
          "system": "http://unitsofmeasure.org",
          "code": "%"
        }
      } ]
    }
  }, {
    "fullUrl": "Observation/389061031",
    "resource": {
      "resourceType": "Observation",
      "id": "389061031",
      "meta": {
        "versionId": "1",
        "profile": [ "https://www.ehealth.fgov.be/standards/fhir/lab/StructureDefinition/be-observation-laboratory" ]
      },
      "text": {
        "status": "empty",
        "div": "<div xmlns=\"http://www.w3.org/1999/xhtml\">empty</div>"
      },
      "basedOn": [ {
        "reference": "ServiceRequest/275723161"
      } ],
      "status": "preliminary",
      "code": {
        "coding": [ {
          "system": "http://loinc.org",
          "code": "2951-2",
          "display": "Sodium (serum/plasma) [mmol/L]"
        } ]
      },
      "subject": {
        "reference": "Patient/20205"
      },
      "issued": "2022-04-04T15:51:10.000+02:00",
      "valueQuantity": {
        "value": 140,
        "system": "http://unitsofmeasure.org",
        "code": "mmol/L"
      },
      "note": [ {
        "extension": [ {
          "url": "https://www.ehealth.fgov.be/standards/fhir/lab/StructureDefinition/annotation-code",
          "valueCodeableConcept": {
            "coding": [ {
              "system": "https://www.ehealth.fgov.be/standards/fhir/lab/CodeSystem/be-cs-coded-annotation-types",
              "code": "lab-test-accreditation"
            } ]
          }
        } ],
        "text": "No"
      } ],
      "specimen": {
        "reference": "Specimen/00220405000108"
      },
      "referenceRange": [ {
        "low": {
          "value": 136,
          "system": "http://unitsofmeasure.org",
          "code": "mmol/L"
        },
        "high": {
          "value": 145,
          "system": "http://unitsofmeasure.org",
          "code": "mmol/L"
        }
      } ]
    }
  }, {
    "fullUrl": "Observation/389061025",
    "resource": {
      "resourceType": "Observation",
      "id": "389061025",
      "meta": {
        "versionId": "1",
        "profile": [ "https://www.ehealth.fgov.be/standards/fhir/lab/StructureDefinition/be-observation-laboratory" ]
      },
      "text": {
        "status": "empty",
        "div": "<div xmlns=\"http://www.w3.org/1999/xhtml\">empty</div>"
      },
      "basedOn": [ {
        "reference": "ServiceRequest/275723151"
      } ],
      "status": "registered",
      "code": {
        "coding": [ {
          "system": "https://mips.be/UZG",
          "code": "RBCAV"
        } ],
        "text": "Erytrocyten"
      },
      "subject": {
        "reference": "Patient/20205"
      },
      "valueString": "volgt",
      "note": [ {
        "extension": [ {
          "url": "https://www.ehealth.fgov.be/standards/fhir/lab/StructureDefinition/annotation-code",
          "valueCodeableConcept": {
            "coding": [ {
              "system": "https://www.ehealth.fgov.be/standards/fhir/lab/CodeSystem/be-cs-coded-annotation-types",
              "code": "lab-test-accreditation"
            } ]
          }
        } ],
        "text": "No"
      } ],
      "specimen": {
        "reference": "Specimen/00220405000103"
      }
    }
  }, {
    "fullUrl": "Observation/389061026",
    "resource": {
      "resourceType": "Observation",
      "id": "389061026",
      "meta": {
        "versionId": "1",
        "profile": [ "https://www.ehealth.fgov.be/standards/fhir/lab/StructureDefinition/be-observation-laboratory" ]
      },
      "text": {
        "status": "empty",
        "div": "<div xmlns=\"http://www.w3.org/1999/xhtml\">empty</div>"
      },
      "basedOn": [ {
        "reference": "ServiceRequest/275723153"
      } ],
      "status": "final",
      "code": {
        "coding": [ {
          "system": "https://mips.be/UZG",
          "code": "RBCPC"
        } ],
        "text": "Erytrocyten"
      },
      "subject": {
        "reference": "Patient/20205"
      },
      "issued": "2022-04-04T15:53:22.000+02:00",
      "valueQuantity": {
        "value": 3000,
        "system": "http://unitsofmeasure.org",
        "code": "/ul"
      },
      "interpretation": [ {
        "coding": [ {
          "system": "http://terminology.hl7.org/CodeSystem/v3-ObservationInterpretation",
          "code": "H"
        } ]
      } ],
      "note": [ {
        "extension": [ {
          "url": "https://www.ehealth.fgov.be/standards/fhir/lab/StructureDefinition/annotation-code",
          "valueCodeableConcept": {
            "coding": [ {
              "system": "https://www.ehealth.fgov.be/standards/fhir/lab/CodeSystem/be-cs-coded-annotation-types",
              "code": "lab-test-accreditation"
            } ]
          }
        } ],
        "text": "No"
      } ],
      "specimen": {
        "reference": "Specimen/00220405000104"
      },
      "referenceRange": [ {
        "text": "0"
      } ]
    }
  }, {
    "fullUrl": "Observation/389061030",
    "resource": {
      "resourceType": "Observation",
      "id": "389061030",
      "meta": {
        "versionId": "1",
        "profile": [ "https://www.ehealth.fgov.be/standards/fhir/lab/StructureDefinition/be-observation-laboratory" ]
      },
      "text": {
        "status": "empty",
        "div": "<div xmlns=\"http://www.w3.org/1999/xhtml\">empty</div>"
      },
      "basedOn": [ {
        "reference": "ServiceRequest/275723159"
      } ],
      "status": "final",
      "code": {
        "coding": [ {
          "system": "https://mips.be/UZG",
          "code": "BTPPU"
        } ],
        "text": "ß-trace proteïne"
      },
      "subject": {
        "reference": "Patient/20205"
      },
      "issued": "2022-04-04T15:53:27.000+02:00",
      "valueQuantity": {
        "value": 4.0,
        "system": "http://unitsofmeasure.org",
        "code": "mg/L"
      },
      "interpretation": [ {
        "coding": [ {
          "system": "http://terminology.hl7.org/CodeSystem/v3-ObservationInterpretation",
          "code": "H"
        } ]
      } ],
      "note": [ {
        "text": "BTP concentratie CSV: 5.4-23.8 mg/L"
      }, {
        "extension": [ {
          "url": "https://www.ehealth.fgov.be/standards/fhir/lab/StructureDefinition/annotation-code",
          "valueCodeableConcept": {
            "coding": [ {
              "system": "https://www.ehealth.fgov.be/standards/fhir/lab/CodeSystem/be-cs-coded-annotation-types",
              "code": "lab-test-accreditation"
            } ]
          }
        } ],
        "text": "No"
      } ],
      "specimen": {
        "reference": "Specimen/00220405000107"
      },
      "referenceRange": [ {
        "high": {
          "value": 1,
          "system": "http://unitsofmeasure.org",
          "code": "mg/L"
        }
      } ]
    }
  }, {
    "fullUrl": "Observation/389061029",
    "resource": {
      "resourceType": "Observation",
      "id": "389061029",
      "meta": {
        "versionId": "1",
        "profile": [ "https://www.ehealth.fgov.be/standards/fhir/lab/StructureDefinition/be-observation-laboratory" ]
      },
      "text": {
        "status": "empty",
        "div": "<div xmlns=\"http://www.w3.org/1999/xhtml\">empty</div>"
      },
      "basedOn": [ {
        "reference": "ServiceRequest/275723157"
      } ],
      "status": "final",
      "code": {
        "coding": [ {
          "system": "https://mips.be/UZG",
          "code": "GGTSP"
        } ],
        "text": "Gamma-GT"
      },
      "subject": {
        "reference": "Patient/20205"
      },
      "issued": "2022-04-04T15:53:32.000+02:00",
      "valueQuantity": {
        "value": 5,
        "system": "http://unitsofmeasure.org",
        "code": "U/L"
      },
      "note": [ {
        "extension": [ {
          "url": "https://www.ehealth.fgov.be/standards/fhir/lab/StructureDefinition/annotation-code",
          "valueCodeableConcept": {
            "coding": [ {
              "system": "https://www.ehealth.fgov.be/standards/fhir/lab/CodeSystem/be-cs-coded-annotation-types",
              "code": "lab-test-accreditation"
            } ]
          }
        } ],
        "text": "No"
      } ],
      "specimen": {
        "reference": "Specimen/00220405000106"
      }
    }
  }, {
    "fullUrl": "Observation/389061024",
    "resource": {
      "resourceType": "Observation",
      "id": "389061024",
      "meta": {
        "versionId": "1",
        "profile": [ "https://www.ehealth.fgov.be/standards/fhir/lab/StructureDefinition/be-observation-laboratory" ]
      },
      "text": {
        "status": "empty",
        "div": "<div xmlns=\"http://www.w3.org/1999/xhtml\">empty</div>"
      },
      "basedOn": [ {
        "reference": "ServiceRequest/275723149"
      } ],
      "status": "preliminary",
      "code": {
        "coding": [ {
          "system": "https://mips.be/UZG",
          "code": "RBCLV"
        } ],
        "text": "Erytrocyten"
      },
      "subject": {
        "reference": "Patient/20205"
      },
      "issued": "2022-04-04T15:53:39.000+02:00",
      "valueQuantity": {
        "value": 4,
        "system": "http://unitsofmeasure.org",
        "code": "/ul"
      },
      "interpretation": [ {
        "coding": [ {
          "system": "http://terminology.hl7.org/CodeSystem/v3-ObservationInterpretation",
          "code": "H"
        } ]
      } ],
      "note": [ {
        "extension": [ {
          "url": "https://www.ehealth.fgov.be/standards/fhir/lab/StructureDefinition/annotation-code",
          "valueCodeableConcept": {
            "coding": [ {
              "system": "https://www.ehealth.fgov.be/standards/fhir/lab/CodeSystem/be-cs-coded-annotation-types",
              "code": "lab-test-accreditation"
            } ]
          }
        } ],
        "text": "No"
      } ],
      "specimen": {
        "reference": "Specimen/00220405000102"
      },
      "referenceRange": [ {
        "text": "0"
      } ]
    }
  }, {
    "fullUrl": "Observation/389061027",
    "resource": {
      "resourceType": "Observation",
      "id": "389061027",
      "meta": {
        "versionId": "1",
        "profile": [ "https://www.ehealth.fgov.be/standards/fhir/lab/StructureDefinition/be-observation-laboratory" ]
      },
      "text": {
        "status": "empty",
        "div": "<div xmlns=\"http://www.w3.org/1999/xhtml\">empty</div>"
      },
      "basedOn": [ {
        "reference": "ServiceRequest/275723155"
      } ],
      "status": "registered",
      "code": {
        "coding": [ {
          "system": "https://mips.be/UZG",
          "code": "BLFIMM"
        } ],
        "text": "Bloed in faeces (immunologisch)"
      },
      "subject": {
        "reference": "Patient/20205"
      },
      "valueString": "volgt",
      "note": [ {
        "extension": [ {
          "url": "https://www.ehealth.fgov.be/standards/fhir/lab/StructureDefinition/annotation-code",
          "valueCodeableConcept": {
            "coding": [ {
              "system": "https://www.ehealth.fgov.be/standards/fhir/lab/CodeSystem/be-cs-coded-annotation-types",
              "code": "lab-test-accreditation"
            } ]
          }
        } ],
        "text": "No"
      } ],
      "specimen": {
        "reference": "Specimen/00220405000105"
      },
      "referenceRange": [ {
        "text": "Negatief"
      } ]
    }
  }, {
    "fullUrl": "Specimen/00220405000101",
    "resource": {
      "resourceType": "Specimen",
      "id": "00220405000101",
      "meta": {
        "versionId": "1",
        "profile": [ "https://www.ehealth.fgov.be/standards/fhir/lab/StructureDefinition/be-specimen-laboratory" ]
      },
      "text": {
        "status": "empty",
        "div": "<div xmlns=\"http://www.w3.org/1999/xhtml\">empty</div>"
      },
      "identifier": [ {
        "system": "https://mips.be/UZG",
        "value": "00220405000101"
      } ],
      "status": "available",
      "type": {
        "coding": [ {
          "system": "http://snomed.info/sct",
          "code": "445295009"
        } ],
        "text": "EDTA (paars)"
      },
      "subject": {
        "reference": "Patient/20205"
      },
      "receivedTime": "2022-04-04T15:50:57+02:00",
      "request": [ {
        "reference": "ServiceRequest/275723145"
      } ],
      "collection": {
        "collectedDateTime": "2022-04-05T08:00:00+02:00"
      }
    }
  }, {
    "fullUrl": "Specimen/00220405000108",
    "resource": {
      "resourceType": "Specimen",
      "id": "00220405000108",
      "meta": {
        "versionId": "1",
        "profile": [ "https://www.ehealth.fgov.be/standards/fhir/lab/StructureDefinition/be-specimen-laboratory" ]
      },
      "text": {
        "status": "empty",
        "div": "<div xmlns=\"http://www.w3.org/1999/xhtml\">empty</div>"
      },
      "identifier": [ {
        "system": "https://mips.be/UZG",
        "value": "00220405000108"
      } ],
      "status": "available",
      "type": {
        "coding": [ {
          "system": "http://snomed.info/sct",
          "code": "119364003"
        } ],
        "text": "Serum (oker met gel) of Heparine (met gel)"
      },
      "subject": {
        "reference": "Patient/20205"
      },
      "receivedTime": "2022-04-04T15:51:11+02:00",
      "request": [ {
        "reference": "ServiceRequest/275723161"
      } ],
      "collection": {
        "collectedDateTime": "2022-04-05T08:00:00+02:00"
      }
    }
  }, {
    "fullUrl": "Specimen/00220405000103",
    "resource": {
      "resourceType": "Specimen",
      "id": "00220405000103",
      "meta": {
        "versionId": "1",
        "profile": [ "https://www.ehealth.fgov.be/standards/fhir/lab/StructureDefinition/be-specimen-laboratory" ]
      },
      "text": {
        "status": "empty",
        "div": "<div xmlns=\"http://www.w3.org/1999/xhtml\">empty</div>"
      },
      "identifier": [ {
        "system": "https://mips.be/UZG",
        "value": "00220405000103"
      } ],
      "status": "unavailable",
      "type": {
        "coding": [ {
          "system": "https://mips.be/UZG",
          "code": "AVEDTA",
          "display": "Ascitesvocht in EDTA"
        } ]
      },
      "subject": {
        "reference": "Patient/20205"
      },
      "request": [ {
        "reference": "ServiceRequest/275723151"
      } ],
      "collection": {
        "collectedDateTime": "2022-04-05T08:00:00+02:00"
      }
    }
  }, {
    "fullUrl": "Specimen/00220405000104",
    "resource": {
      "resourceType": "Specimen",
      "id": "00220405000104",
      "meta": {
        "versionId": "1",
        "profile": [ "https://www.ehealth.fgov.be/standards/fhir/lab/StructureDefinition/be-specimen-laboratory" ]
      },
      "text": {
        "status": "empty",
        "div": "<div xmlns=\"http://www.w3.org/1999/xhtml\">empty</div>"
      },
      "identifier": [ {
        "system": "https://mips.be/UZG",
        "value": "00220405000104"
      } ],
      "status": "available",
      "type": {
        "coding": [ {
          "system": "https://mips.be/UZG",
          "code": "PCEDTA",
          "display": "Pericardvocht in EDTA"
        } ]
      },
      "subject": {
        "reference": "Patient/20205"
      },
      "receivedTime": "2022-04-04T15:53:22+02:00",
      "request": [ {
        "reference": "ServiceRequest/275723153"
      } ],
      "collection": {
        "collectedDateTime": "2022-04-05T08:00:00+02:00"
      }
    }
  }, {
    "fullUrl": "Specimen/00220405000107",
    "resource": {
      "resourceType": "Specimen",
      "id": "00220405000107",
      "meta": {
        "versionId": "1",
        "profile": [ "https://www.ehealth.fgov.be/standards/fhir/lab/StructureDefinition/be-specimen-laboratory" ]
      },
      "text": {
        "status": "empty",
        "div": "<div xmlns=\"http://www.w3.org/1999/xhtml\">empty</div>"
      },
      "identifier": [ {
        "system": "https://mips.be/UZG",
        "value": "00220405000107"
      } ],
      "status": "available",
      "type": {
        "coding": [ {
          "system": "https://mips.be/UZG",
          "code": "PuV",
          "display": "Punctievocht"
        } ]
      },
      "subject": {
        "reference": "Patient/20205"
      },
      "receivedTime": "2022-04-04T15:53:27+02:00",
      "request": [ {
        "reference": "ServiceRequest/275723159"
      } ],
      "collection": {
        "collectedDateTime": "2022-04-05T08:00:00+02:00"
      }
    }
  }, {
    "fullUrl": "Specimen/00220405000106",
    "resource": {
      "resourceType": "Specimen",
      "id": "00220405000106",
      "meta": {
        "versionId": "1",
        "profile": [ "https://www.ehealth.fgov.be/standards/fhir/lab/StructureDefinition/be-specimen-laboratory" ]
      },
      "text": {
        "status": "empty",
        "div": "<div xmlns=\"http://www.w3.org/1999/xhtml\">empty</div>"
      },
      "identifier": [ {
        "system": "https://mips.be/UZG",
        "value": "00220405000106"
      } ],
      "status": "available",
      "type": {
        "coding": [ {
          "system": "https://mips.be/UZG",
          "code": "SPR",
          "display": "Sperma"
        } ]
      },
      "subject": {
        "reference": "Patient/20205"
      },
      "receivedTime": "2022-04-04T15:53:33+02:00",
      "request": [ {
        "reference": "ServiceRequest/275723157"
      } ],
      "collection": {
        "collectedDateTime": "2022-04-05T08:00:00+02:00"
      }
    }
  }, {
    "fullUrl": "Specimen/00220405000102",
    "resource": {
      "resourceType": "Specimen",
      "id": "00220405000102",
      "meta": {
        "versionId": "1",
        "profile": [ "https://www.ehealth.fgov.be/standards/fhir/lab/StructureDefinition/be-specimen-laboratory" ]
      },
      "text": {
        "status": "empty",
        "div": "<div xmlns=\"http://www.w3.org/1999/xhtml\">empty</div>"
      },
      "identifier": [ {
        "system": "https://mips.be/UZG",
        "value": "00220405000102"
      } ],
      "status": "available",
      "type": {
        "coding": [ {
          "system": "http://snomed.info/sct",
          "code": "430221008"
        } ],
        "text": "Lumbaal vocht"
      },
      "subject": {
        "reference": "Patient/20205"
      },
      "receivedTime": "2022-04-04T15:53:39+02:00",
      "request": [ {
        "reference": "ServiceRequest/275723149"
      } ],
      "collection": {
        "collectedDateTime": "2022-04-05T08:00:00+02:00"
      }
    }
  }, {
    "fullUrl": "Specimen/00220405000105",
    "resource": {
      "resourceType": "Specimen",
      "id": "00220405000105",
      "meta": {
        "versionId": "1",
        "profile": [ "https://www.ehealth.fgov.be/standards/fhir/lab/StructureDefinition/be-specimen-laboratory" ]
      },
      "text": {
        "status": "empty",
        "div": "<div xmlns=\"http://www.w3.org/1999/xhtml\">empty</div>"
      },
      "identifier": [ {
        "system": "https://mips.be/UZG",
        "value": "00220405000105"
      } ],
      "status": "unavailable",
      "type": {
        "coding": [ {
          "system": "http://snomed.info/sct",
          "code": "119339001"
        } ],
        "text": "Faeces"
      },
      "subject": {
        "reference": "Patient/20205"
      },
      "request": [ {
        "reference": "ServiceRequest/275723155"
      } ],
      "collection": {
        "collectedDateTime": "2022-04-05T08:00:00+02:00"
      }
    }
  } ]
}