{"resourceType":"Bundle","type":"document","timestamp":"2021-12-20T15:21:04Z","identifier":{"system":"https://www.ehealth.fgov.be/lab-report/bundle-id","value":"81365677998.815333048.3"},"entry":[{
    "fullUrl": "Composition/815333048",
    "resource": {
        "resourceType": "Composition",
        "id": "815333048",
        "meta": {
            "profile": [
                "https://www.ehealth.fgov.be/standards/fhir/lab/StructureDefinition/be-laboratory-report-composition"
            ]
        },
        "text": {
            "status": "generated",
            "div": "<div xmlns=\"http://www.w3.org/1999/xhtml\"><p><b>id: </b>815333048</p><p><b>status: </b>final</p><p><b>type: </b>http://loinc.org 11502-2 Laboratory report</p><p><b>date: </b>2021-12-20T15:21:04+01:00</p><p><b>author: </b>Practitioner/Responsible</p><p><b>title: </b>Laboratory Report</p></div>"
        },
        "identifier": {
            "system": "http://www.macsys.be/hl7/Composition",
            "value": "815333048"
        },
        "status": "final",
        "type": {
            "coding": [
                {
                    "system": "http://loinc.org",
                    "code": "11502-2"
                }
            ],
            "text": "Laboratory report"
        },
        "subject": {
            "reference": "Patient/7165401"
        },
        "date": "2021-12-20T15:21:04+01:00",
        "author": [
            {
                "reference": "Practitioner/Responsible"
            }
        ],
        "title": "Laboratory Report",
        "section": [
            {
                "entry": [
                    {
                        "reference": "DiagnosticReport/815333048"
                    }
                ]
            }
        ]
    }
}
,{
    "fullUrl": "Specimen/002815333048",
    "resource": {
        "resourceType": "Specimen",
        "id": "002815333048",
        "meta": {
            "profile": [
                "https://www.ehealth.fgov.be/standards/fhir/lab/StructureDefinition/be-specimen-laboratory"
            ]
        },
        "text": {
            "status": "generated",
            "div": "<div xmlns=\"http://www.w3.org/1999/xhtml\"><p><b>id: </b>002815333048</p><p><b>status: </b>available</p><p><b>type: </b>http://terminology.hl7.org/CodeSystem/v2-0487 BLDV Blood venous EDTA-volbloed</p><p><b>receivedTime: </b>2021-11-19T12:54:00+01:00</p><p><b>collector: </b>Practitioner/69</p></div>"
        },
        "identifier": [
            {
                "system": "http://www.macsys.be/hl7/Specimen",
                "value": "002815333048"
            }
        ],
        "status": "available",
        "type": {
            "coding": [
                {
                    "system": "http://terminology.hl7.org/CodeSystem/v2-0487",
                    "code": "BLDV",
                    "display": "Blood venous"
                }
            ],
            "text": "EDTA-volbloed"
        },
        "subject": {
            "reference": "Patient/7165401"
        },
        "receivedTime": "2021-11-19T12:54:00+01:00",
        "collection": {
            "collectedDateTime": "2021-11-19T00:00:00+01:00",
            "collector": {
                "reference": "Practitioner/69"
            }
        }
    }
}
,{
    "fullUrl": "Specimen/001815333048",
    "resource": {
        "resourceType": "Specimen",
        "id": "001815333048",
        "meta": {
            "profile": [
                "https://www.ehealth.fgov.be/standards/fhir/lab/StructureDefinition/be-specimen-laboratory"
            ]
        },
        "text": {
            "status": "generated",
            "div": "<div xmlns=\"http://www.w3.org/1999/xhtml\"><p><b>id: </b>001815333048</p><p><b>status: </b>available</p><p><b>type: </b>http://terminology.hl7.org/CodeSystem/v2-0487 SER Serum Serum</p><p><b>receivedTime: </b>2021-11-19T12:54:00+01:00</p><p><b>collector: </b>Practitioner/69</p></div>"
        },
        "identifier": [
            {
                "system": "http://www.macsys.be/hl7/Specimen",
                "value": "001815333048"
            }
        ],
        "status": "available",
        "type": {
            "coding": [
                {
                    "system": "http://terminology.hl7.org/CodeSystem/v2-0487",
                    "code": "SER",
                    "display": "Serum"
                }
            ],
            "text": "Serum"
        },
        "subject": {
            "reference": "Patient/7165401"
        },
        "receivedTime": "2021-11-19T12:54:00+01:00",
        "collection": {
            "collectedDateTime": "2021-11-19T00:00:00+01:00",
            "collector": {
                "reference": "Practitioner/69"
            }
        }
    }
}
,{
    "fullUrl": "Observation/Observation.1.0.0.0",
    "resource": {
        "resourceType": "Observation",
        "id": "Observation.1.0.0.0",
        "meta": {
            "profile": [
                "https://www.ehealth.fgov.be/standards/fhir/lab/StructureDefinition/be-observation-laboratory"
            ]
        },
        "text": {
            "status": "generated",
            "div": "<div xmlns=\"http://www.w3.org/1999/xhtml\"><p><b>code: </b>HEMATOLOGIE</p><p><b>subject: </b>Patient/7165401</p><p><b>effective: </b>2021-11-19T00:00:00+01:00</p><p><b>performer: </b>Practitioner/Responsible</p><p><b>member: </b> // Observation/Observation.1.0.0.1 // </p></div>"
        },
        "status": "final",
        "code": {
            "text": "HEMATOLOGIE"
        },
        "subject": {
            "reference": "Patient/7165401"
        },
        "effectiveDateTime": "2021-11-19T00:00:00+01:00",
        "performer": [
            {
                "reference": "Practitioner/Responsible"
            }
        ],
        "hasMember": [
            {
                "reference": "Observation/Observation.1.0.0.1"
            }
        ]
    }
}
,{
    "fullUrl": "Observation/Observation.1.0.0.1",
    "resource": {
        "resourceType": "Observation",
        "id": "Observation.1.0.0.1",
        "meta": {
            "profile": [
                "https://www.ehealth.fgov.be/standards/fhir/lab/StructureDefinition/be-observation-laboratory"
            ]
        },
        "text": {
            "status": "generated",
            "div": "<div xmlns=\"http://www.w3.org/1999/xhtml\"><p><b>code: </b>http://loinc.org 4537-7 Bezinking na 1 uur</p><p><b>subject: </b>Patient/7165401</p><p><b>effective: </b>2021-11-19T00:00:00+01:00</p><p><b>performer: </b>Practitioner/Responsible</p><p><b>result: </b>7 mm</p><p><b>specimen: </b>Specimen/002815333048</p><p><b>referenceRange: </b> // High: 45 mm // </p></div>"
        },
        "status": "final",
        "code": {
            "coding": [
                {
                    "system": "http://loinc.org",
                    "code": "4537-7"
                }
            ],
            "text": "Bezinking na 1 uur"
        },
        "subject": {
            "reference": "Patient/7165401"
        },
        "effectiveDateTime": "2021-11-19T00:00:00+01:00",
        "issued": "2021-11-19T12:56:17+01:00",
        "performer": [
            {
                "reference": "Practitioner/Responsible"
            }
        ],
        "valueQuantity": {
            "value": 7,
            "unit": "mm",
            "system": "http://unitsofmeasure.org",
            "code": "mm"
        },
        "specimen": {
            "reference": "Specimen/002815333048"
        },
        "referenceRange": [
            {
                "high": {
                    "value": 45,
                    "unit": "mm",
                    "system": "http://unitsofmeasure.org",
                    "code": "mm"
                }
            }
        ]
    }
}
,{
    "fullUrl": "Observation/Observation.2.0.0.0",
    "resource": {
        "resourceType": "Observation",
        "id": "Observation.2.0.0.0",
        "meta": {
            "profile": [
                "https://www.ehealth.fgov.be/standards/fhir/lab/StructureDefinition/be-observation-laboratory"
            ]
        },
        "text": {
            "status": "generated",
            "div": "<div xmlns=\"http://www.w3.org/1999/xhtml\"><p><b>code: </b>INFLAMMATIE</p><p><b>subject: </b>Patient/7165401</p><p><b>effective: </b>2021-11-19T00:00:00+01:00</p><p><b>performer: </b>Practitioner/Responsible</p><p><b>member: </b> // Observation/Observation.2.0.0.1 // </p></div>"
        },
        "status": "final",
        "code": {
            "text": "INFLAMMATIE"
        },
        "subject": {
            "reference": "Patient/7165401"
        },
        "effectiveDateTime": "2021-11-19T00:00:00+01:00",
        "performer": [
            {
                "reference": "Practitioner/Responsible"
            }
        ],
        "hasMember": [
            {
                "reference": "Observation/Observation.2.0.0.1"
            }
        ]
    }
}
,{
    "fullUrl": "Observation/Observation.2.0.0.1",
    "resource": {
        "resourceType": "Observation",
        "id": "Observation.2.0.0.1",
        "meta": {
            "profile": [
                "https://www.ehealth.fgov.be/standards/fhir/lab/StructureDefinition/be-observation-laboratory"
            ]
        },
        "text": {
            "status": "generated",
            "div": "<div xmlns=\"http://www.w3.org/1999/xhtml\"><p><b>code: </b>http://loinc.org 1988-5 CRP</p><p><b>subject: </b>Patient/7165401</p><p><b>effective: </b>2021-11-19T00:00:00+01:00</p><p><b>performer: </b>Practitioner/Responsible</p><p><b>result: </b>12,0 mg/L</p><p><b>specimen: </b>Specimen/001815333048</p><p><b>interpretation: </b>H</p><p><b>referenceRange: </b> // High: 5,0 mg/L // </p></div>"
        },
        "status": "final",
        "code": {
            "coding": [
                {
                    "system": "http://loinc.org",
                    "code": "1988-5"
                }
            ],
            "text": "CRP"
        },
        "subject": {
            "reference": "Patient/7165401"
        },
        "effectiveDateTime": "2021-11-19T00:00:00+01:00",
        "issued": "2021-11-19T12:56:29+01:00",
        "performer": [
            {
                "reference": "Practitioner/Responsible"
            }
        ],
        "valueQuantity": {
            "value": 12.0,
            "unit": "mg/L",
            "system": "http://unitsofmeasure.org",
            "code": "mg/L"
        },
        "interpretation": [
            {
                "coding": [
                    {
                        "system": "http://terminology.hl7.org/CodeSystem/v3-ObservationInterpretation",
                        "code": "H"
                    }
                ]
            }
        ],
        "specimen": {
            "reference": "Specimen/001815333048"
        },
        "referenceRange": [
            {
                "high": {
                    "value": 5.0,
                    "unit": "mg/L",
                    "system": "http://unitsofmeasure.org",
                    "code": "mg/L"
                }
            }
        ]
    }
}
,{
    "fullUrl": "DiagnosticReport/815333048",
    "resource": {
        "resourceType": "DiagnosticReport",
        "id": "815333048",
        "meta": {
            "versionId": "3",
            "profile": [
                "https://www.ehealth.fgov.be/standards/fhir/lab/StructureDefinition/be-laboratory-report"
            ]
        },
        "language": "nl",
        "text": {
            "status": "generated",
            "div": "<div xmlns=\"http://www.w3.org/1999/xhtml\" xml:lang=\"nl\" lang=\"nl\"><p><b>id: </b>815333048</p><p><b>basedOn: </b>ServiceRequest/815333048</p><p><b>status: </b>final</p><p><b>category: </b>http://terminology.hl7.org/CodeSystem/v2-0074 LAB Laboratory</p><p><b>code: </b>http://loinc.org 11502-2 Laboratory report</p><p><b>subject: </b>Patient/7165401</p><p><b>effective: </b>2021-11-19T00:00:00+01:00</p><p><b>issued: </b>2021-12-20T15:21:04+01:00</p><p><b>performer: </b>Organization/81365677998</p><p><b>resultsInterpreter: </b>Practitioner/Responsible</p><p><b>specimen: </b> // Specimen/002815333048 // Specimen/001815333048 // </p><p><b>result: </b> // Observation/Observation.1.0.0.0 // Observation/Observation.2.0.0.0 // </p></div>"
        },
        "identifier": [
            {
                "system": "https://www.ehealth.fgov.be/lab-report/diagnostic-report-id",
                "value": "81365677998.815333048"
            }
        ],
        "basedOn": [
            {
                "reference": "ServiceRequest/815333048"
            }
        ],
        "status": "final",
        "category": [
            {
                "coding": [
                    {
                        "system": "http://terminology.hl7.org/CodeSystem/v2-0074",
                        "code": "LAB",
                        "display": "Laboratory"
                    }
                ]
            }
        ],
        "code": {
            "coding": [
                {
                    "system": "http://loinc.org",
                    "code": "11502-2",
                    "display": "Laboratory report"
                }
            ]
        },
        "subject": {
            "reference": "Patient/7165401"
        },
        "effectiveDateTime": "2021-11-19T00:00:00+01:00",
        "issued": "2021-12-20T15:21:04+01:00",
        "performer": [
            {
                "reference": "Organization/81365677998"
            }
        ],
        "resultsInterpreter": [
            {
                "reference": "Practitioner/Responsible"
            }
        ],
        "specimen": [
            {
                "reference": "Specimen/002815333048"
            },
            {
                "reference": "Specimen/001815333048"
            }
        ],
        "result": [
            {
                "reference": "Observation/Observation.1.0.0.0"
            },
            {
                "reference": "Observation/Observation.2.0.0.0"
            }
        ],
        "presentedForm": [
            {
                "contentType": "application/pdf",
                "data": "",
                "title": "PDF protocol"
            }
        ]
    }
}
,{
    "fullUrl": "Organization/81365677998",
    "resource": {
        "resourceType": "Organization",
        "id": "81365677998",
        "meta": {
            "profile": [
                "https://www.ehealth.fgov.be/standards/fhir/core/StructureDefinition/be-organization"
            ]
        },
        "text": {
            "status": "generated",
            "div": "<div xmlns=\"http://www.w3.org/1999/xhtml\"><p><b>identifier: </b>81365677998</p><p><b>name: </b>CENTRUM VOOR MEDISCHE ANALYSE</p><p><b>contact: </b>014/28.50.00</p><p><b>address: </b>Oud-Strijderslaan 199 2200 Herentals BE</p></div>"
        },
        "identifier": [
            {
                "use": "official",
                "type": {
                    "coding": [
                        {
                            "system": "http://terminology.hl7.org/CodeSystem/v2-0203",
                            "code": "MD",
                            "display": "Medical License number"
                        }
                    ]
                },
                "system": "https://www.ehealth.fgov.be/standards/fhir/core/NamingSystem/nihdi",
                "value": "81365677998"
            },
            {
                "use": "official",
                "system": "https://economie.fgov.be/belac",
                "value": "007-MED"
            }
        ],
        "active": true,
        "type": [
            {
                "coding": [
                    {
                        "system": "https://www.ehealth.fgov.be/standards/fhir/core/CodeSystem/cd-hcparty",
                        "code": "orglaboratory"
                    }
                ]
            }
        ],
        "name": "CENTRUM VOOR MEDISCHE ANALYSE",
        "telecom": [
            {
                "system": "phone",
                "value": "014/28.50.00",
                "use": "work"
            },
            {
                "system": "fax",
                "value": "014/22.56.08",
                "use": "work"
            },
            {
                "system": "email",
                "value": "info@cma.be",
                "use": "work"
            },
            {
                "system": "url",
                "value": "http://www.cma.be",
                "use": "work"
            }
        ],
        "address": [
            {
                "use": "work",
                "type": "both",
                "line": [
                    "Oud-Strijderslaan 199"
                ],
                "city": "Herentals",
                "postalCode": "2200",
                "country": "BE"
            }
        ]
    }
}
,{
    "fullUrl": "Practitioner/69",
    "resource": {
        "resourceType": "Practitioner",
        "id": "69",
        "meta": {
            "profile": [
                "https://www.ehealth.fgov.be/standards/fhir/core/StructureDefinition/be-practitioner"
            ]
        },
        "text": {
            "status": "generated",
            "div": "<div xmlns=\"http://www.w3.org/1999/xhtml\"><p><b>identifier: </b>10000007999</p><p><b>name: </b>Cma - Herentals Fhir</p><p><b>contact: </b>info@cma.be</p><p><b>address: </b>Oud-Strijderslaan 199 2200 Herentals BE</p></div>"
        },
        "identifier": [
            {
                "use": "official",
                "system": "https://www.ehealth.fgov.be/standards/fhir/core/NamingSystem/nihdi",
                "value": "10000007999"
            }
        ],
        "name": [
            {
                "use": "official",
                "family": "Cma - Herentals",
                "given": [
                    "Fhir"
                ],
                "prefix": [
                    "Dr."
                ]
            }
        ],
        "telecom": [
            {
                "system": "email",
                "value": "info@cma.be",
                "use": "work"
            },
            {
                "system": "fax",
                "value": "(+32)14/225608",
                "use": "work"
            },
            {
                "system": "phone",
                "value": "(+32)14/285000",
                "use": "work"
            }
        ],
        "address": [
            {
                "use": "work",
                "type": "both",
                "line": [
                    "Oud-Strijderslaan 199"
                ],
                "city": "Herentals",
                "postalCode": "2200",
                "country": "BE"
            }
        ],
        "gender": "unknown"
    }
}
,{
    "fullUrl": "Practitioner/Responsible",
    "resource": {
        "resourceType": "Practitioner",
        "id": "Responsible",
        "meta": {
            "profile": [
                "https://www.ehealth.fgov.be/standards/fhir/core/StructureDefinition/be-practitioner"
            ]
        },
        "text": {
            "status": "generated",
            "div": "<div xmlns=\"http://www.w3.org/1999/xhtml\"><p><b>identifier: </b>68071432800</p><p><b>name: </b>Engelen Frans</p><p><b>contact: </b>014/28.50.00</p><p><b>address: </b>Oud-Strijderslaan 199 2200 Herentals BE</p></div>"
        },
        "identifier": [
            {
                "use": "official",
                "system": "https://www.ehealth.fgov.be/standards/fhir/core/NamingSystem/nihdi",
                "value": "68071432800"
            }
        ],
        "name": [
            {
                "use": "official",
                "family": "Engelen",
                "given": [
                    "Frans"
                ]
            }
        ],
        "telecom": [
            {
                "system": "phone",
                "value": "014/28.50.00",
                "use": "work"
            }
        ],
        "address": [
            {
                "use": "work",
                "type": "both",
                "line": [
                    "Oud-Strijderslaan 199"
                ],
                "city": "Herentals",
                "postalCode": "2200",
                "country": "BE"
            }
        ],
        "gender": "unknown"
    }
}
,{
    "fullUrl": "Patient/7165401",
    "resource": {
        "resourceType": "Patient",
        "id": "7165401",
        "meta": {
            "profile": [
                "https://www.ehealth.fgov.be/standards/fhir/core/StructureDefinition/be-patient"
            ]
        },
        "text": {
            "status": "generated",
            "div": "<div xmlns=\"http://www.w3.org/1999/xhtml\"><p><b>identifier: </b>40010199813</p><p><b>name: </b>Lastname Firstname Old</p><p><b>gender: </b>female</p><p><b>birthDate: </b>1940-01-01</p><p><b>address: </b>Oud-Strijderslaan 199 2200 Herentals BE</p></div>"
        },
        "identifier": [
            {
                "use": "official",
                "system": "https://www.ehealth.fgov.be/standards/fhir/core/NamingSystem/ssin",
                "value": "40010199813"
            }
        ],
        "active": true,
        "name": [
            {
                "use": "official",
                "family": "Lastname",
                "given": [
                    "Firstname Old"
                ]
            }
        ],
        "address": [
            {
                "use": "home",
                "type": "both",
                "line": [
                    "Oud-Strijderslaan 199"
                ],
                "city": "Herentals",
                "postalCode": "2200",
                "country": "BE"
            }
        ],
        "gender": "female",
        "birthDate": "1940-01-01"
    }
}
,{
    "fullUrl": "ServiceRequest/815333048",
    "resource": {
        "resourceType": "ServiceRequest",
        "id": "815333048",
        "text": {
            "status": "generated",
            "div": "<div xmlns=\"http://www.w3.org/1999/xhtml\"><p><b>id: </b>815333048</p><p><b>intent: </b>order</p><p><b>status: </b>completed</p><p><b>category: </b>http://snomed.info/sct 108252007 Laboratory procedure</p><p><b>subject: </b>Patient/7165401</p><p><b>requester: </b>Practitioner/69</p><p><b>authoredOn: </b>2021-11-19T12:54:00+01:00</p></div>"
        },
        "identifier": [
            {
                "system": "http://www.macsys.be/hl7/ServiceRequest",
                "value": "815333048"
            }
        ],
        "status": "completed",
        "intent": "order",
        "category": [
            {
                "coding": [
                    {
                        "system": "http://snomed.info/sct",
                        "code": "108252007",
                        "display": "Laboratory procedure"
                    }
                ]
            }
        ],
        "subject": {
            "reference": "Patient/7165401"
        },
        "priority": "routine",
        "authoredOn": "2021-11-19T12:54:00+01:00",
        "requester": {
            "reference": "Practitioner/69"
        }
    }
}
]}