{"resourceType":"Bundle","type":"document","timestamp":"2021-12-20T14:38:31Z","identifier":{"system":"https://www.ehealth.fgov.be/lab-report/bundle-id","value":"81365677998.815333043.2"},"entry":[{
    "fullUrl": "Composition/815333043",
    "resource": {
        "resourceType": "Composition",
        "id": "815333043",
        "meta": {
            "profile": [
                "https://www.ehealth.fgov.be/standards/fhir/StructureDefinition/be-laboratory-report-composition"
            ]
        },
        "text": {
            "status": "generated",
            "div": "<div xmlns=\"http://www.w3.org/1999/xhtml\"><p><b>id: </b>815333043</p><p><b>status: </b>final</p><p><b>type: </b>http://loinc.org 11502-2 Laboratory report</p><p><b>date: </b>2021-12-20T14:38:31+01:00</p><p><b>author: </b>Practitioner/Responsible</p><p><b>title: </b>Laboratory Report</p></div>"
        },
        "identifier": {
            "system": "http://www.macsys.be/hl7/Composition",
            "value": "815333043"
        },
        "status": "final",
        "type": {
            "coding": [
                {
                    "system": "http://loinc.org",
                    "code": "11502-2"
                }
            ],
            "text": "Laboratory report"
        },
        "subject": {
            "reference": "Patient/7165356"
        },
        "date": "2021-12-20T14:38:31+01:00",
        "author": [
            {
                "reference": "Practitioner/Responsible"
            }
        ],
        "title": "Laboratory Report",
        "section": [
            {
                "entry": [
                    {
                        "reference": "DiagnosticReport/815333043"
                    }
                ]
            }
        ]
    }
}
,{
    "fullUrl": "Specimen/002815333043",
    "resource": {
        "resourceType": "Specimen",
        "id": "002815333043",
        "meta": {
            "profile": [
                "https://www.ehealth.fgov.be/standards/fhir/StructureDefinition/be-specimen-laboratory"
            ]
        },
        "text": {
            "status": "generated",
            "div": "<div xmlns=\"http://www.w3.org/1999/xhtml\"><p><b>id: </b>002815333043</p><p><b>status: </b>available</p><p><b>type: </b>http://terminology.hl7.org/CodeSystem/v2-0487 BLDV Blood venous EDTA-volbloed</p><p><b>receivedTime: </b>2021-11-04T13:08:58+01:00</p><p><b>collector: </b>Practitioner/69</p></div>"
        },
        "identifier": [
            {
                "system": "http://www.macsys.be/hl7/Specimen",
                "value": "002815333043"
            }
        ],
        "status": "available",
        "type": {
            "coding": [
                {
                    "system": "http://terminology.hl7.org/CodeSystem/v2-0487",
                    "code": "BLDV",
                    "display": "Blood venous"
                }
            ],
            "text": "EDTA-volbloed"
        },
        "subject": {
            "reference": "Patient/7165356"
        },
        "receivedTime": "2021-11-04T13:08:58+01:00",
        "collection": {
            "collectedDateTime": "2021-11-04T00:00:00+01:00",
            "collector": {
                "reference": "Practitioner/69"
            }
        }
    }
}
,{
    "fullUrl": "Specimen/004815333043",
    "resource": {
        "resourceType": "Specimen",
        "id": "004815333043",
        "meta": {
            "profile": [
                "https://www.ehealth.fgov.be/standards/fhir/StructureDefinition/be-specimen-laboratory"
            ]
        },
        "text": {
            "status": "generated",
            "div": "<div xmlns=\"http://www.w3.org/1999/xhtml\"><p><b>id: </b>004815333043</p><p><b>status: </b>available</p><p><b>type: </b>http://terminology.hl7.org/CodeSystem/v2-0487 BLDV Blood venous Fluoride nuchter</p><p><b>receivedTime: </b>2021-11-04T13:08:58+01:00</p><p><b>collector: </b>Practitioner/69</p></div>"
        },
        "identifier": [
            {
                "system": "http://www.macsys.be/hl7/Specimen",
                "value": "004815333043"
            }
        ],
        "status": "available",
        "type": {
            "coding": [
                {
                    "system": "http://terminology.hl7.org/CodeSystem/v2-0487",
                    "code": "BLDV",
                    "display": "Blood venous"
                }
            ],
            "text": "Fluoride nuchter"
        },
        "subject": {
            "reference": "Patient/7165356"
        },
        "receivedTime": "2021-11-04T13:08:58+01:00",
        "collection": {
            "collectedDateTime": "2021-11-04T00:00:00+01:00",
            "collector": {
                "reference": "Practitioner/69"
            }
        }
    }
}
,{
    "fullUrl": "Observation/Observation.1.0.0.0",
    "resource": {
        "resourceType": "Observation",
        "id": "Observation.1.0.0.0",
        "meta": {
            "profile": [
                "https://www.ehealth.fgov.be/standards/fhir/StructureDefinition/be-observation-laboratory"
            ]
        },
        "text": {
            "status": "generated",
            "div": "<div xmlns=\"http://www.w3.org/1999/xhtml\"><p><b>code: </b>KOOLHYDRATENMETABOLISME</p><p><b>subject: </b>Patient/7165356</p><p><b>effective: </b>2021-11-04T00:00:00+01:00</p><p><b>performer: </b>Practitioner/Responsible</p><p><b>member: </b> // Observation/Observation.1.0.0.1 // Observation/Observation.1.0.0.2 // Observation/Observation.1.0.0.3 // </p></div>"
        },
        "status": "final",
        "code": {
            "text": "KOOLHYDRATENMETABOLISME"
        },
        "subject": {
            "reference": "Patient/7165356"
        },
        "effectiveDateTime": "2021-11-04T00:00:00+01:00",
        "performer": [
            {
                "reference": "Practitioner/Responsible"
            }
        ],
        "hasMember": [
            {
                "reference": "Observation/Observation.1.0.0.1"
            },
            {
                "reference": "Observation/Observation.1.0.0.2"
            },
            {
                "reference": "Observation/Observation.1.0.0.3"
            }
        ]
    }
}
,{
    "fullUrl": "Observation/Observation.1.0.0.1",
    "resource": {
        "resourceType": "Observation",
        "id": "Observation.1.0.0.1",
        "meta": {
            "profile": [
                "https://www.ehealth.fgov.be/standards/fhir/StructureDefinition/be-observation-laboratory"
            ]
        },
        "text": {
            "status": "generated",
            "div": "<div xmlns=\"http://www.w3.org/1999/xhtml\"><p><b>code: </b>http://loinc.org 4548-4 Hemoglobine A1c (NGSP)</p><p><b>subject: </b>Patient/7165356</p><p><b>effective: </b>2021-11-04T00:00:00+01:00</p><p><b>performer: </b>Practitioner/Responsible</p><p><b>result: </b>5,2 %</p><p><b>specimen: </b>Specimen/002815333043</p><p><b>referenceRange: </b> // Low: 4,0 % // High: 6,0 % // Streefwaarde diabetes  &lt;= 7,0%\r\n // </p></div>"
        },
        "status": "final",
        "code": {
            "coding": [
                {
                    "system": "http://loinc.org",
                    "code": "4548-4"
                }
            ],
            "text": "Hemoglobine A1c (NGSP)"
        },
        "subject": {
            "reference": "Patient/7165356"
        },
        "effectiveDateTime": "2021-11-04T00:00:00+01:00",
        "issued": "2021-11-04T13:12:10+01:00",
        "performer": [
            {
                "reference": "Practitioner/Responsible"
            }
        ],
        "valueQuantity": {
            "value": 5.2,
            "unit": "%",
            "system": "http://unitsofmeasure.org",
            "code": "%"
        },
        "specimen": {
            "reference": "Specimen/002815333043"
        },
        "referenceRange": [
            {
                "low": {
                    "value": 4.0,
                    "unit": "%",
                    "system": "http://unitsofmeasure.org",
                    "code": "%"
                },
                "high": {
                    "value": 6.0,
                    "unit": "%",
                    "system": "http://unitsofmeasure.org",
                    "code": "%"
                },
                "text": "Streefwaarde diabetes  <= 7,0%\r\n"
            }
        ]
    }
}
,{
    "fullUrl": "Observation/Observation.1.0.0.2",
    "resource": {
        "resourceType": "Observation",
        "id": "Observation.1.0.0.2",
        "meta": {
            "profile": [
                "https://www.ehealth.fgov.be/standards/fhir/StructureDefinition/be-observation-laboratory"
            ]
        },
        "text": {
            "status": "generated",
            "div": "<div xmlns=\"http://www.w3.org/1999/xhtml\"><p><b>code: </b>http://loinc.org 59261-8 Hemoglobine A1c (IFCC)</p><p><b>subject: </b>Patient/7165356</p><p><b>effective: </b>2021-11-04T00:00:00+01:00</p><p><b>performer: </b>Practitioner/Responsible</p><p><b>result: </b>33 mmol/mol</p><p><b>specimen: </b>Specimen/002815333043</p><p><b>referenceRange: </b> // Low: 20 mmol/mol // High: 42 mmol/mol // Streefwaarde diabetes  &lt;= 53 mmol/mol\r\n // </p></div>"
        },
        "status": "final",
        "code": {
            "coding": [
                {
                    "system": "http://loinc.org",
                    "code": "59261-8"
                }
            ],
            "text": "Hemoglobine A1c (IFCC)"
        },
        "subject": {
            "reference": "Patient/7165356"
        },
        "effectiveDateTime": "2021-11-04T00:00:00+01:00",
        "issued": "2021-11-04T13:12:15+01:00",
        "performer": [
            {
                "reference": "Practitioner/Responsible"
            }
        ],
        "valueQuantity": {
            "value": 33,
            "unit": "mmol/mol",
            "system": "http://unitsofmeasure.org",
            "code": "mmol/mol"
        },
        "specimen": {
            "reference": "Specimen/002815333043"
        },
        "referenceRange": [
            {
                "low": {
                    "value": 20,
                    "unit": "mmol/mol",
                    "system": "http://unitsofmeasure.org",
                    "code": "mmol/mol"
                },
                "high": {
                    "value": 42,
                    "unit": "mmol/mol",
                    "system": "http://unitsofmeasure.org",
                    "code": "mmol/mol"
                },
                "text": "Streefwaarde diabetes  <= 53 mmol/mol\r\n"
            }
        ]
    }
}
,{
    "fullUrl": "Observation/Observation.1.0.0.3",
    "resource": {
        "resourceType": "Observation",
        "id": "Observation.1.0.0.3",
        "meta": {
            "profile": [
                "https://www.ehealth.fgov.be/standards/fhir/StructureDefinition/be-observation-laboratory"
            ]
        },
        "text": {
            "status": "generated",
            "div": "<div xmlns=\"http://www.w3.org/1999/xhtml\"><p><b>code: </b>http://loinc.org 53049-3 Glucose nuchter</p><p><b>subject: </b>Patient/7165356</p><p><b>effective: </b>2021-11-04T00:00:00+01:00</p><p><b>performer: </b>Practitioner/Responsible</p><p><b>result: </b>70 mg/dL</p><p><b>specimen: </b>Specimen/004815333043</p><p><b>referenceRange: </b> // Low: 70 mg/dL // High: 99 mg/dL // </p></div>"
        },
        "status": "final",
        "code": {
            "coding": [
                {
                    "system": "http://loinc.org",
                    "code": "53049-3"
                }
            ],
            "text": "Glucose nuchter"
        },
        "subject": {
            "reference": "Patient/7165356"
        },
        "effectiveDateTime": "2021-11-04T00:00:00+01:00",
        "issued": "2021-11-04T13:11:32+01:00",
        "performer": [
            {
                "reference": "Practitioner/Responsible"
            }
        ],
        "valueQuantity": {
            "value": 70,
            "unit": "mg/dL",
            "system": "http://unitsofmeasure.org",
            "code": "mg/dL"
        },
        "specimen": {
            "reference": "Specimen/004815333043"
        },
        "referenceRange": [
            {
                "low": {
                    "value": 70,
                    "unit": "mg/dL",
                    "system": "http://unitsofmeasure.org",
                    "code": "mg/dL"
                },
                "high": {
                    "value": 99,
                    "unit": "mg/dL",
                    "system": "http://unitsofmeasure.org",
                    "code": "mg/dL"
                }
            }
        ]
    }
}
,{
    "fullUrl": "DiagnosticReport/815333043",
    "resource": {
        "resourceType": "DiagnosticReport",
        "id": "815333043",
        "meta": {
            "versionId": "2",
            "profile": [
                "https://www.ehealth.fgov.be/standards/fhir/StructureDefinition/be-laboratory-report"
            ]
        },
        "language": "nl",
        "text": {
            "status": "generated",
            "div": "<div xmlns=\"http://www.w3.org/1999/xhtml\" xml:lang=\"nl\" lang=\"nl\"><p><b>id: </b>815333043</p><p><b>basedOn: </b>ServiceRequest/815333043</p><p><b>status: </b>final</p><p><b>category: </b>http://terminology.hl7.org/CodeSystem/v2-0074 LAB Laboratory</p><p><b>code: </b>http://loinc.org 11502-2 Laboratory report</p><p><b>subject: </b>Patient/7165356</p><p><b>effective: </b>2021-11-04T00:00:00+01:00</p><p><b>issued: </b>2021-12-20T14:38:31+01:00</p><p><b>performer: </b>Organization/81365677998</p><p><b>resultsInterpreter: </b>Practitioner/Responsible</p><p><b>specimen: </b> // Specimen/002815333043 // Specimen/004815333043 // </p><p><b>result: </b> // Observation/Observation.1.0.0.0 // </p></div>"
        },
        "identifier": [
            {
                "system": "https://www.ehealth.fgov.be/lab-report/diagnostic-report-id",
                "value": "81365677998.815333043"
            }
        ],
        "basedOn": [
            {
                "reference": "ServiceRequest/815333043"
            }
        ],
        "status": "final",
        "category": [
            {
                "coding": [
                    {
                        "system": "http://terminology.hl7.org/CodeSystem/v2-0074",
                        "code": "LAB",
                        "display": "Laboratory"
                    }
                ]
            }
        ],
        "code": {
            "coding": [
                {
                    "system": "http://loinc.org",
                    "code": "11502-2",
                    "display": "Laboratory report"
                }
            ]
        },
        "subject": {
            "reference": "Patient/7165356"
        },
        "effectiveDateTime": "2021-11-04T00:00:00+01:00",
        "issued": "2021-12-20T14:38:31+01:00",
        "performer": [
            {
                "reference": "Organization/81365677998"
            }
        ],
        "resultsInterpreter": [
            {
                "reference": "Practitioner/Responsible"
            }
        ],
        "specimen": [
            {
                "reference": "Specimen/002815333043"
            },
            {
                "reference": "Specimen/004815333043"
            }
        ],
        "result": [
            {
                "reference": "Observation/Observation.1.0.0.0"
            }
        ],
        "presentedForm": [
            {
                "contentType": "application/pdf",
                "data": "",
                "title": "PDF protocol"
            }
        ]
    }
}
,{
    "fullUrl": "Organization/81365677998",
    "resource": {
        "resourceType": "Organization",
        "id": "81365677998",
        "meta": {
            "profile": [
                "https://www.ehealth.fgov.be/standards/fhir/StructureDefinition/be-organization"
            ]
        },
        "text": {
            "status": "generated",
            "div": "<div xmlns=\"http://www.w3.org/1999/xhtml\"><p><b>identifier: </b>81365677998</p><p><b>name: </b>CENTRUM VOOR MEDISCHE ANALYSE</p><p><b>contact: </b>014/28.50.00</p><p><b>address: </b>Oud-Strijderslaan 199 2200 Herentals BE</p></div>"
        },
        "identifier": [
            {
                "use": "official",
                "type": {
                    "coding": [
                        {
                            "system": "http://terminology.hl7.org/CodeSystem/v2-0203",
                            "code": "MD",
                            "display": "Medical License number"
                        }
                    ]
                },
                "system": "https://www.ehealth.fgov.be/standards/fhir/NamingSystem/nihdi",
                "value": "81365677998"
            },
            {
                "use": "official",
                "system": "https://economie.fgov.be/belac",
                "value": "007-MED"
            }
        ],
        "active": true,
        "type": [
            {
                "coding": [
                    {
                        "system": "https://www.ehealth.fgov.be/standards/fhir/CodeSystem/cd-hcparty",
                        "code": "orglaboratory"
                    }
                ]
            }
        ],
        "name": "CENTRUM VOOR MEDISCHE ANALYSE",
        "telecom": [
            {
                "system": "phone",
                "value": "014/28.50.00",
                "use": "work"
            },
            {
                "system": "fax",
                "value": "014/22.56.08",
                "use": "work"
            },
            {
                "system": "email",
                "value": "info@cma.be",
                "use": "work"
            },
            {
                "system": "url",
                "value": "http://www.cma.be",
                "use": "work"
            }
        ],
        "address": [
            {
                "use": "work",
                "type": "both",
                "line": [
                    "Oud-Strijderslaan 199"
                ],
                "city": "Herentals",
                "postalCode": "2200",
                "country": "BE"
            }
        ]
    }
}
,{
    "fullUrl": "Practitioner/69",
    "resource": {
        "resourceType": "Practitioner",
        "id": "69",
        "meta": {
            "profile": [
                "https://www.ehealth.fgov.be/standards/fhir/StructureDefinition/be-practitioner"
            ]
        },
        "text": {
            "status": "generated",
            "div": "<div xmlns=\"http://www.w3.org/1999/xhtml\"><p><b>identifier: </b>10000007999</p><p><b>name: </b>Cma - Herentals Fhir</p><p><b>contact: </b>info@cma.be</p><p><b>address: </b>Oud-Strijderslaan 199 2200 Herentals BE</p></div>"
        },
        "identifier": [
            {
                "use": "official",
                "system": "https://www.ehealth.fgov.be/standards/fhir/NamingSystem/nihdi",
                "value": "10000007999"
            }
        ],
        "name": [
            {
                "use": "official",
                "family": "Cma - Herentals",
                "given": [
                    "Fhir"
                ],
                "prefix": [
                    "Dr."
                ]
            }
        ],
        "telecom": [
            {
                "system": "email",
                "value": "info@cma.be",
                "use": "work"
            },
            {
                "system": "fax",
                "value": "(+32)14/225608",
                "use": "work"
            },
            {
                "system": "phone",
                "value": "(+32)14/285000",
                "use": "work"
            }
        ],
        "address": [
            {
                "use": "work",
                "type": "both",
                "line": [
                    "Oud-Strijderslaan 199"
                ],
                "city": "Herentals",
                "postalCode": "2200",
                "country": "BE"
            }
        ],
        "gender": "unknown"
    }
}
,{
    "fullUrl": "Practitioner/Responsible",
    "resource": {
        "resourceType": "Practitioner",
        "id": "Responsible",
        "meta": {
            "profile": [
                "https://www.ehealth.fgov.be/standards/fhir/StructureDefinition/be-practitioner"
            ]
        },
        "text": {
            "status": "generated",
            "div": "<div xmlns=\"http://www.w3.org/1999/xhtml\"><p><b>identifier: </b>68071432800</p><p><b>name: </b>Engelen Frans</p><p><b>contact: </b>014/28.50.00</p><p><b>address: </b>Oud-Strijderslaan 199 2200 Herentals BE</p></div>"
        },
        "identifier": [
            {
                "use": "official",
                "system": "https://www.ehealth.fgov.be/standards/fhir/NamingSystem/nihdi",
                "value": "68071432800"
            }
        ],
        "name": [
            {
                "use": "official",
                "family": "Engelen",
                "given": [
                    "Frans"
                ]
            }
        ],
        "telecom": [
            {
                "system": "phone",
                "value": "014/28.50.00",
                "use": "work"
            }
        ],
        "address": [
            {
                "use": "work",
                "type": "both",
                "line": [
                    "Oud-Strijderslaan 199"
                ],
                "city": "Herentals",
                "postalCode": "2200",
                "country": "BE"
            }
        ],
        "gender": "unknown"
    }
}
,{
    "fullUrl": "Patient/7165356",
    "resource": {
        "resourceType": "Patient",
        "id": "7165356",
        "meta": {
            "profile": [
                "https://www.ehealth.fgov.be/standards/fhir/StructureDefinition/be-patient"
            ]
        },
        "text": {
            "status": "generated",
            "div": "<div xmlns=\"http://www.w3.org/1999/xhtml\"><p><b>identifier: </b>90010199893</p><p><b>name: </b>Lastname Firstname Female</p><p><b>gender: </b>female</p><p><b>birthDate: </b>1990-01-01</p><p><b>address: </b>Oud-Strijderslaan 199 2200 Herentals BE</p></div>"
        },
        "identifier": [
            {
                "use": "official",
                "system": "https://www.ehealth.fgov.be/standards/fhir/NamingSystem/ssin",
                "value": "90010199893"
            }
        ],
        "active": true,
        "name": [
            {
                "use": "official",
                "family": "Lastname",
                "given": [
                    "Firstname Female"
                ]
            }
        ],
        "address": [
            {
                "use": "home",
                "type": "both",
                "line": [
                    "Oud-Strijderslaan 199"
                ],
                "city": "Herentals",
                "postalCode": "2200",
                "country": "BE"
            }
        ],
        "gender": "female",
        "birthDate": "1990-01-01"
    }
}
,{
    "fullUrl": "ServiceRequest/815333043",
    "resource": {
        "resourceType": "ServiceRequest",
        "id": "815333043",
        "text": {
            "status": "generated",
            "div": "<div xmlns=\"http://www.w3.org/1999/xhtml\"><p><b>id: </b>815333043</p><p><b>intent: </b>order</p><p><b>status: </b>completed</p><p><b>category: </b>http://snomed.info/sct 108252007 Laboratory procedure</p><p><b>subject: </b>Patient/7165356</p><p><b>requester: </b>Practitioner/69</p><p><b>authoredOn: </b>2021-11-04T13:08:00+01:00</p></div>"
        },
        "identifier": [
            {
                "system": "http://www.macsys.be/hl7/ServiceRequest",
                "value": "815333043"
            }
        ],
        "status": "completed",
        "intent": "order",
        "category": [
            {
                "coding": [
                    {
                        "system": "http://snomed.info/sct",
                        "code": "108252007",
                        "display": "Laboratory procedure"
                    }
                ]
            }
        ],
        "subject": {
            "reference": "Patient/7165356"
        },
        "priority": "routine",
        "authoredOn": "2021-11-04T13:08:00+01:00",
        "requester": {
            "reference": "Practitioner/69"
        }
    }
}
]}