{"resourceType":"Bundle","type":"document","timestamp":"2021-11-24T09:06:30Z","identifier":{"system":"https://www.ehealth.fgov.be/hl7/bundle","value":"81365677998.815333046.4"},"entry":[{"fullUrl":"Composition/815333046","resource":{"resourceType":"Composition","id":"815333046","meta":{"profile":["https://www.ehealth.fgov.be/standards/fhir/StructureDefinition/be-laboratory-report-composition"]},"text":{"status":"generated","div":"<div xmlns=\"http://www.w3.org/1999/xhtml\"><p><b>id: </b>815333046</p><p><b>status: </b>final</p><p><b>type: </b>http://loinc.org 11502-2 Laboratory report</p><p><b>date: </b>2021-11-24T09:06:30+01:00</p><p><b>author: </b>Practitioner/Responsible</p><p><b>title: </b>Laboratory Report</p></div>"},"identifier":{"system":"http://www.macsys.be/hl7/Composition","value":"815333046"},"status":"final","type":{"coding":[{"system":"http://loinc.org","code":"11502-2"}],"text":"Laboratory report"},"subject":{"reference":"Patient/6388178"},"date":"2021-11-24T09:06:30+01:00","author":[{"reference":"Practitioner/Responsible"}],"title":"Laboratory Report","section":[{"entry":[{"reference":"DiagnosticReport/815333046"}]}]}},{"fullUrl":"Specimen/002815333046","resource":{"resourceType":"Specimen","id":"002815333046","meta":{"profile":["https://www.ehealth.fgov.be/standards/fhir/StructureDefinition/be-specimen-laboratory"]},"text":{"status":"generated","div":"<div xmlns=\"http://www.w3.org/1999/xhtml\"><p><b>id: </b>002815333046</p><p><b>status: </b>available</p><p><b>type: </b>http://terminology.hl7.org/CodeSystem/v2-0487 SER Serum EDTA-volbloed</p><p><b>receivedTime: </b>2021-11-19T11:56:52+01:00</p><p><b>collector: </b>Practitioner/8152</p></div>"},"identifier":[{"system":"http://www.macsys.be/hl7/Specimen","value":"002815333046"}],"status":"available","type":{"coding":[{"system":"http://terminology.hl7.org/CodeSystem/v2-0487","code":"SER","display":"Serum"}],"text":"EDTA-volbloed"},"subject":{"reference":"Patient/6388178"},"receivedTime":"2021-11-19T11:56:52+01:00","collection":{"collectedDateTime":"2021-11-19T00:00:00+01:00","collector":{"reference":"Practitioner/8152"}}}},{"fullUrl":"Specimen/001815333046","resource":{"resourceType":"Specimen","id":"001815333046","meta":{"profile":["https://www.ehealth.fgov.be/standards/fhir/StructureDefinition/be-specimen-laboratory"]},"text":{"status":"generated","div":"<div xmlns=\"http://www.w3.org/1999/xhtml\"><p><b>id: </b>001815333046</p><p><b>status: </b>available</p><p><b>type: </b>http://terminology.hl7.org/CodeSystem/v2-0487 SER Serum Serum</p><p><b>receivedTime: </b>2021-11-19T11:56:52+01:00</p><p><b>collector: </b>Practitioner/8152</p></div>"},"identifier":[{"system":"http://www.macsys.be/hl7/Specimen","value":"001815333046"}],"status":"available","type":{"coding":[{"system":"http://terminology.hl7.org/CodeSystem/v2-0487","code":"SER","display":"Serum"}],"text":"Serum"},"subject":{"reference":"Patient/6388178"},"receivedTime":"2021-11-19T11:56:52+01:00","collection":{"collectedDateTime":"2021-11-19T00:00:00+01:00","collector":{"reference":"Practitioner/8152"}}}},{"fullUrl":"Observation/Observation.0.0.0.1","resource":{"resourceType":"Observation","id":"Observation.0.0.0.1","meta":{"profile":["https://www.ehealth.fgov.be/standards/fhir/StructureDefinition/be-observation-laboratory"]},"text":{"status":"generated","div":"<div xmlns=\"http://www.w3.org/1999/xhtml\"><p><b>code: </b>http://loinc.org 55752-0 Klinische gegevens</p><p><b>subject: </b>Patient/6388178</p><p><b>effective: </b>2021-11-19T00:00:00+01:00</p><p><b>performer: </b>Practitioner/Responsible</p><p><b>result: </b>Diabetes mellitus</p><p><b>interpretation: </b></p></div>"},"status":"final","code":{"coding":[{"system":"http://loinc.org","code":"55752-0"}],"text":"Klinische gegevens"},"subject":{"reference":"Patient/6388178"},"effectiveDateTime":"2021-11-19T00:00:00+01:00","issued":"2021-11-19T12:57:44+01:00","performer":[{"reference":"Practitioner/Responsible"}],"valueString":"Diabetes mellitus"}},{"fullUrl":"Observation/Observation.1.0.0.0","resource":{"resourceType":"Observation","id":"Observation.1.0.0.0","meta":{"profile":["https://www.ehealth.fgov.be/standards/fhir/StructureDefinition/be-observation-laboratory"]},"text":{"status":"generated","div":"<div xmlns=\"http://www.w3.org/1999/xhtml\"><p><b>code: </b>HEMATOLOGIE</p><p><b>subject: </b>Patient/6388178</p><p><b>effective: </b>2021-11-19T00:00:00+01:00</p><p><b>performer: </b>Practitioner/Responsible</p><p><b>member: </b> // Observation/Observation.1.0.0.1 // Observation/Observation.1.0.0.2 // Observation/Observation.1.0.0.3 // Observation/Observation.1.0.0.4 // Observation/Observation.1.0.0.5 // Observation/Observation.1.0.0.6 // Observation/Observation.1.0.0.7 // Observation/Observation"},"status":"final","code":{"text":"HEMATOLOGIE"},"subject":{"reference":"Patient/6388178"},"effectiveDateTime":"2021-11-19T00:00:00+01:00","performer":[{"reference":"Practitioner/Responsible"}],"hasMember":[{"reference":"Observation/Observation.1.0.0.1"},{"reference":"Observation/Observation.1.0.0.2"},{"reference":"Observation/Observation.1.0.0.3"},{"reference":"Observation/Observation.1.0.0.4"},{"reference":"Observation/Observation.1.0.0.5"},{"reference":"Observation/Observation.1.0.0.6"},{"reference":"Observation/Observation.1.0.0.7"},{"reference":"Observation/Observation.1.0.0.8"},{"reference":"Observation/Observation.1.0.0.9"}]}},{"fullUrl":"Observation/Observation.1.0.0.1","resource":{"resourceType":"Observation","id":"Observation.1.0.0.1","meta":{"profile":["https://www.ehealth.fgov.be/standards/fhir/StructureDefinition/be-observation-laboratory"]},"text":{"status":"generated","div":"<div xmlns=\"http://www.w3.org/1999/xhtml\"><p><b>code: </b>http://loinc.org 94330-8 Opmerking</p><p><b>subject: </b>Patient/6388178</p><p><b>effective: </b>2021-11-19T00:00:00+01:00</p><p><b>performer: </b>Practitioner/Responsible</p><p><b>result: </b>De EDTA-tube was onvoldoende gevuld; dit kan de\r\nresultaten hematologie beinvloeden.</p><p><b>specimen: </b>Specimen/002815333046</p><p><b>interpretation: </b></p></div>"},"status":"final","code":{"coding":[{"system":"http://loinc.org","code":"94330-8"}],"text":"Opmerking"},"subject":{"reference":"Patient/6388178"},"effectiveDateTime":"2021-11-19T00:00:00+01:00","issued":"2021-11-19T12:00:24+01:00","performer":[{"reference":"Practitioner/Responsible"}],"valueString":"De EDTA-tube was onvoldoende gevuld; dit kan de\r\nresultaten hematologie beinvloeden.","specimen":{"reference":"Specimen/002815333046"}}},{"fullUrl":"Observation/Observation.1.0.0.2","resource":{"resourceType":"Observation","id":"Observation.1.0.0.2","meta":{"profile":["https://www.ehealth.fgov.be/standards/fhir/StructureDefinition/be-observation-laboratory"]},"text":{"status":"generated","div":"<div xmlns=\"http://www.w3.org/1999/xhtml\"><p><b>code: </b>http://loinc.org 789-8 Erytrocyten</p><p><b>subject: </b>Patient/6388178</p><p><b>effective: </b>2021-11-19T00:00:00+01:00</p><p><b>performer: </b>Practitioner/Responsible</p><p><b>result: </b>4,4000000000 10*6/uL</p><p><b>specimen: </b>Specimen/002815333046</p><p><b>interpretation: </b></p><p><b>referenceRange: </b> // Low: 4,00000 10*6/uL // High: 5,61000 10*6/uL // </p></div>"},"status":"final","code":{"coding":[{"system":"http://loinc.org","code":"789-8"}],"text":"Erytrocyten"},"subject":{"reference":"Patient/6388178"},"effectiveDateTime":"2021-11-19T00:00:00+01:00","issued":"2021-11-19T12:01:14+01:00","performer":[{"reference":"Practitioner/Responsible"}],"valueQuantity":{"value":4.4000000000,"unit":"10*6/uL","system":"http://unitsofmeasure.org","code":"10*6/uL"},"specimen":{"reference":"Specimen/002815333046"},"referenceRange":[{"low":{"value":4.00000,"unit":"10*6/uL","system":"http://unitsofmeasure.org","code":"10*6/uL"},"high":{"value":5.61000,"unit":"10*6/uL","system":"http://unitsofmeasure.org","code":"10*6/uL"}}]}},{"fullUrl":"Observation/Observation.1.0.0.3","resource":{"resourceType":"Observation","id":"Observation.1.0.0.3","meta":{"profile":["https://www.ehealth.fgov.be/standards/fhir/StructureDefinition/be-observation-laboratory"]},"text":{"status":"generated","div":"<div xmlns=\"http://www.w3.org/1999/xhtml\"><p><b>code: </b>http://loinc.org 718-7 Hemoglobine</p><p><b>subject: </b>Patient/6388178</p><p><b>effective: </b>2021-11-19T00:00:00+01:00</p><p><b>performer: </b>Practitioner/Responsible</p><p><b>result: </b>14,6000000000 g/dL</p><p><b>specimen: </b>Specimen/002815333046</p><p><b>interpretation: </b></p><p><b>referenceRange: </b> // Low: 12,20000 g/dL // High: 16,50000 g/dL // </p></div>"},"status":"final","code":{"coding":[{"system":"http://loinc.org","code":"718-7"}],"text":"Hemoglobine"},"subject":{"reference":"Patient/6388178"},"effectiveDateTime":"2021-11-19T00:00:00+01:00","issued":"2021-11-19T12:01:46+01:00","performer":[{"reference":"Practitioner/Responsible"}],"valueQuantity":{"value":14.6000000000,"unit":"g/dL","system":"http://unitsofmeasure.org","code":"g/dL"},"specimen":{"reference":"Specimen/002815333046"},"referenceRange":[{"low":{"value":12.20000,"unit":"g/dL","system":"http://unitsofmeasure.org","code":"g/dL"},"high":{"value":16.50000,"unit":"g/dL","system":"http://unitsofmeasure.org","code":"g/dL"}}]}},{"fullUrl":"Observation/Observation.1.0.0.4","resource":{"resourceType":"Observation","id":"Observation.1.0.0.4","meta":{"profile":["https://www.ehealth.fgov.be/standards/fhir/StructureDefinition/be-observation-laboratory"]},"text":{"status":"generated","div":"<div xmlns=\"http://www.w3.org/1999/xhtml\"><p><b>code: </b>http://loinc.org 4544-3 Hematocriet</p><p><b>subject: </b>Patient/6388178</p><p><b>effective: </b>2021-11-19T00:00:00+01:00</p><p><b>performer: </b>Practitioner/Responsible</p><p><b>result: </b>40,3000000000 %</p><p><b>specimen: </b>Specimen/002815333046</p><p><b>interpretation: </b></p><p><b>referenceRange: </b> // Low: 36,30000 % // High: 49,30000 % // </p></div>"},"status":"final","code":{"coding":[{"system":"http://loinc.org","code":"4544-3"}],"text":"Hematocriet"},"subject":{"reference":"Patient/6388178"},"effectiveDateTime":"2021-11-19T00:00:00+01:00","issued":"2021-11-19T12:01:25+01:00","performer":[{"reference":"Practitioner/Responsible"}],"valueQuantity":{"value":40.3000000000,"unit":"%","system":"http://unitsofmeasure.org","code":"%"},"specimen":{"reference":"Specimen/002815333046"},"referenceRange":[{"low":{"value":36.30000,"unit":"%","system":"http://unitsofmeasure.org","code":"%"},"high":{"value":49.30000,"unit":"%","system":"http://unitsofmeasure.org","code":"%"}}]}},{"fullUrl":"Observation/Observation.1.0.0.5","resource":{"resourceType":"Observation","id":"Observation.1.0.0.5","meta":{"profile":["https://www.ehealth.fgov.be/standards/fhir/StructureDefinition/be-observation-laboratory"]},"text":{"status":"generated","div":"<div xmlns=\"http://www.w3.org/1999/xhtml\"><p><b>code: </b>http://loinc.org 787-2 MCV</p><p><b>subject: </b>Patient/6388178</p><p><b>effective: </b>2021-11-19T00:00:00+01:00</p><p><b>performer: </b>Practitioner/Responsible</p><p><b>result: </b>88,0000000000 fL</p><p><b>specimen: </b>Specimen/002815333046</p><p><b>interpretation: </b></p><p><b>referenceRange: </b> // Low: 83,20000 fL // High: 96,00000 fL // </p></div>"},"status":"final","code":{"coding":[{"system":"http://loinc.org","code":"787-2"}],"text":"MCV"},"subject":{"reference":"Patient/6388178"},"effectiveDateTime":"2021-11-19T00:00:00+01:00","issued":"2021-11-19T12:01:29+01:00","performer":[{"reference":"Practitioner/Responsible"}],"valueQuantity":{"value":88.0000000000,"unit":"fL","system":"http://unitsofmeasure.org","code":"fL"},"specimen":{"reference":"Specimen/002815333046"},"referenceRange":[{"low":{"value":83.20000,"unit":"fL","system":"http://unitsofmeasure.org","code":"fL"},"high":{"value":96.00000,"unit":"fL","system":"http://unitsofmeasure.org","code":"fL"}}]}},{"fullUrl":"Observation/Observation.1.0.0.6","resource":{"resourceType":"Observation","id":"Observation.1.0.0.6","meta":{"profile":["https://www.ehealth.fgov.be/standards/fhir/StructureDefinition/be-observation-laboratory"]},"text":{"status":"generated","div":"<div xmlns=\"http://www.w3.org/1999/xhtml\"><p><b>code: </b>http://loinc.org 785-6 MCH</p><p><b>subject: </b>Patient/6388178</p><p><b>effective: </b>2021-11-19T00:00:00+01:00</p><p><b>performer: </b>Practitioner/Responsible</p><p><b>result: </b>30,1000000000 pg</p><p><b>specimen: </b>Specimen/002815333046</p><p><b>interpretation: </b></p><p><b>referenceRange: </b> // Low: 27,80000 pg // High: 32,50000 pg // </p></div>"},"status":"final","code":{"coding":[{"system":"http://loinc.org","code":"785-6"}],"text":"MCH"},"subject":{"reference":"Patient/6388178"},"effectiveDateTime":"2021-11-19T00:00:00+01:00","issued":"2021-11-19T12:01:32+01:00","performer":[{"reference":"Practitioner/Responsible"}],"valueQuantity":{"value":30.1000000000,"unit":"pg","system":"http://unitsofmeasure.org","code":"pg"},"specimen":{"reference":"Specimen/002815333046"},"referenceRange":[{"low":{"value":27.80000,"unit":"pg","system":"http://unitsofmeasure.org","code":"pg"},"high":{"value":32.50000,"unit":"pg","system":"http://unitsofmeasure.org","code":"pg"}}]}},{"fullUrl":"Observation/Observation.1.0.0.7","resource":{"resourceType":"Observation","id":"Observation.1.0.0.7","meta":{"profile":["https://www.ehealth.fgov.be/standards/fhir/StructureDefinition/be-observation-laboratory"]},"text":{"status":"generated","div":"<div xmlns=\"http://www.w3.org/1999/xhtml\"><p><b>code: </b>http://loinc.org 786-4 MCHC</p><p><b>subject: </b>Patient/6388178</p><p><b>effective: </b>2021-11-19T00:00:00+01:00</p><p><b>performer: </b>Practitioner/Responsible</p><p><b>result: </b>34,8000000000 g/dL</p><p><b>specimen: </b>Specimen/002815333046</p><p><b>interpretation: </b></p><p><b>referenceRange: </b> // Low: 32,00000 g/dL // High: 35,70000 g/dL // </p></div>"},"status":"final","code":{"coding":[{"system":"http://loinc.org","code":"786-4"}],"text":"MCHC"},"subject":{"reference":"Patient/6388178"},"effectiveDateTime":"2021-11-19T00:00:00+01:00","issued":"2021-11-19T12:01:36+01:00","performer":[{"reference":"Practitioner/Responsible"}],"valueQuantity":{"value":34.8000000000,"unit":"g/dL","system":"http://unitsofmeasure.org","code":"g/dL"},"specimen":{"reference":"Specimen/002815333046"},"referenceRange":[{"low":{"value":32.00000,"unit":"g/dL","system":"http://unitsofmeasure.org","code":"g/dL"},"high":{"value":35.70000,"unit":"g/dL","system":"http://unitsofmeasure.org","code":"g/dL"}}]}},{"fullUrl":"Observation/Observation.1.0.0.8","resource":{"resourceType":"Observation","id":"Observation.1.0.0.8","meta":{"profile":["https://www.ehealth.fgov.be/standards/fhir/StructureDefinition/be-observation-laboratory"]},"text":{"status":"generated","div":"<div xmlns=\"http://www.w3.org/1999/xhtml\"><p><b>code: </b>http://loinc.org 6690-2 Leukocyten</p><p><b>subject: </b>Patient/6388178</p><p><b>effective: </b>2021-11-19T00:00:00+01:00</p><p><b>performer: </b>Practitioner/Responsible</p><p><b>result: </b>5690,0000000000 /uL</p><p><b>specimen: </b>Specimen/002815333046</p><p><b>interpretation: </b></p><p><b>referenceRange: </b> // Low: 3720,00000 /uL // High: 10540,00000 /uL // </p></div>"},"status":"final","code":{"coding":[{"system":"http://loinc.org","code":"6690-2"}],"text":"Leukocyten"},"subject":{"reference":"Patient/6388178"},"effectiveDateTime":"2021-11-19T00:00:00+01:00","issued":"2021-11-19T12:01:39+01:00","performer":[{"reference":"Practitioner/Responsible"}],"valueQuantity":{"value":5690.0000000000,"unit":"/uL","system":"http://unitsofmeasure.org","code":"/uL"},"specimen":{"reference":"Specimen/002815333046"},"referenceRange":[{"low":{"value":3720.00000,"unit":"/uL","system":"http://unitsofmeasure.org","code":"/uL"},"high":{"value":10540.00000,"unit":"/uL","system":"http://unitsofmeasure.org","code":"/uL"}}]}},{"fullUrl":"Observation/Observation.1.0.0.9","resource":{"resourceType":"Observation","id":"Observation.1.0.0.9","meta":{"profile":["https://www.ehealth.fgov.be/standards/fhir/StructureDefinition/be-observation-laboratory"]},"text":{"status":"generated","div":"<div xmlns=\"http://www.w3.org/1999/xhtml\"><p><b>code: </b>http://loinc.org 777-3 Trombocyten</p><p><b>subject: </b>Patient/6388178</p><p><b>effective: </b>2021-11-19T00:00:00+01:00</p><p><b>performer: </b>Practitioner/Responsible</p><p><b>result: </b>301,0000000000 10*3/uL</p><p><b>specimen: </b>Specimen/002815333046</p><p><b>interpretation: </b></p><p><b>referenceRange: </b> // Low: 148,00000 10*3/uL // High: 399,00000 10*3/uL // </p></div>"},"status":"final","code":{"coding":[{"system":"http://loinc.org","code":"777-3"}],"text":"Trombocyten"},"subject":{"reference":"Patient/6388178"},"effectiveDateTime":"2021-11-19T00:00:00+01:00","issued":"2021-11-19T12:01:43+01:00","performer":[{"reference":"Practitioner/Responsible"}],"valueQuantity":{"value":301.0000000000,"unit":"10*3/uL","system":"http://unitsofmeasure.org","code":"10*3/uL"},"specimen":{"reference":"Specimen/002815333046"},"referenceRange":[{"low":{"value":148.00000,"unit":"10*3/uL","system":"http://unitsofmeasure.org","code":"10*3/uL"},"high":{"value":399.00000,"unit":"10*3/uL","system":"http://unitsofmeasure.org","code":"10*3/uL"}}]}},{"fullUrl":"Observation/Observation.2.0.0.0","resource":{"resourceType":"Observation","id":"Observation.2.0.0.0","meta":{"profile":["https://www.ehealth.fgov.be/standards/fhir/StructureDefinition/be-observation-laboratory"]},"text":{"status":"generated","div":"<div xmlns=\"http://www.w3.org/1999/xhtml\"><p><b>code: </b>ELEKTROLYTEN</p><p><b>subject: </b>Patient/6388178</p><p><b>effective: </b>2021-11-19T00:00:00+01:00</p><p><b>performer: </b>Practitioner/Responsible</p><p><b>member: </b> // Observation/Observation.2.0.0.1 // Observation/Observation.2.0.0.2 // Observation/Observation.2.0.0.3 // Observation/Observation.2.0.0.4 // </p></div>"},"status":"final","code":{"text":"ELEKTROLYTEN"},"subject":{"reference":"Patient/6388178"},"effectiveDateTime":"2021-11-19T00:00:00+01:00","performer":[{"reference":"Practitioner/Responsible"}],"hasMember":[{"reference":"Observation/Observation.2.0.0.1"},{"reference":"Observation/Observation.2.0.0.2"},{"reference":"Observation/Observation.2.0.0.3"},{"reference":"Observation/Observation.2.0.0.4"}]}},{"fullUrl":"Observation/Observation.2.0.0.1","resource":{"resourceType":"Observation","id":"Observation.2.0.0.1","meta":{"profile":["https://www.ehealth.fgov.be/standards/fhir/StructureDefinition/be-observation-laboratory"]},"text":{"status":"generated","div":"<div xmlns=\"http://www.w3.org/1999/xhtml\"><p><b>code: </b>http://loinc.org 2951-2 Natrium</p><p><b>subject: </b>Patient/6388178</p><p><b>effective: </b>2021-11-19T00:00:00+01:00</p><p><b>performer: </b>Practitioner/Responsible</p><p><b>result: </b>142,0000000000 mmol/L</p><p><b>interpretation: </b></p><p><b>referenceRange: </b> // Low: 136,00000 mmol/L // High: 145,00000 mmol/L // </p></div>"},"status":"final","code":{"coding":[{"system":"http://loinc.org","code":"2951-2"}],"text":"Natrium"},"subject":{"reference":"Patient/6388178"},"effectiveDateTime":"2021-11-19T00:00:00+01:00","issued":"2021-11-19T12:02:12+01:00","performer":[{"reference":"Practitioner/Responsible"}],"valueQuantity":{"value":142.0000000000,"unit":"mmol/L","system":"http://unitsofmeasure.org","code":"mmol/L"},"referenceRange":[{"low":{"value":136.00000,"unit":"mmol/L","system":"http://unitsofmeasure.org","code":"mmol/L"},"high":{"value":145.00000,"unit":"mmol/L","system":"http://unitsofmeasure.org","code":"mmol/L"}}]}},{"fullUrl":"Observation/Observation.2.0.0.2","resource":{"resourceType":"Observation","id":"Observation.2.0.0.2","meta":{"profile":["https://www.ehealth.fgov.be/standards/fhir/StructureDefinition/be-observation-laboratory"]},"text":{"status":"generated","div":"<div xmlns=\"http://www.w3.org/1999/xhtml\"><p><b>code: </b>http://loinc.org 2823-3 Kalium</p><p><b>subject: </b>Patient/6388178</p><p><b>effective: </b>2021-11-19T00:00:00+01:00</p><p><b>performer: </b>Practitioner/Responsible</p><p><b>result: </b>8,5000000000 mmol/L</p><p><b>interpretation: </b>HH</p><p><b>referenceRange: </b> // Low: 3,50000 mmol/L // High: 5,10000 mmol/L // </p></div>"},"status":"final","code":{"coding":[{"system":"http://loinc.org","code":"2823-3"}],"text":"Kalium"},"subject":{"reference":"Patient/6388178"},"effectiveDateTime":"2021-11-19T00:00:00+01:00","issued":"2021-11-19T12:02:16+01:00","performer":[{"reference":"Practitioner/Responsible"}],"valueQuantity":{"value":8.5000000000,"unit":"mmol/L","system":"http://unitsofmeasure.org","code":"mmol/L"},"interpretation":[{"coding":[{"system":"http://terminology.hl7.org/CodeSystem/v3-ObservationInterpretation","code":"HH"}]}],"referenceRange":[{"low":{"value":3.50000,"unit":"mmol/L","system":"http://unitsofmeasure.org","code":"mmol/L"},"high":{"value":5.10000,"unit":"mmol/L","system":"http://unitsofmeasure.org","code":"mmol/L"}}]}},{"fullUrl":"Observation/Observation.2.0.0.3","resource":{"resourceType":"Observation","id":"Observation.2.0.0.3","meta":{"profile":["https://www.ehealth.fgov.be/standards/fhir/StructureDefinition/be-observation-laboratory"]},"text":{"status":"generated","div":"<div xmlns=\"http://www.w3.org/1999/xhtml\"><p><b>code: </b>http://loinc.org 2075-0 Chloride</p><p><b>subject: </b>Patient/6388178</p><p><b>effective: </b>2021-11-19T00:00:00+01:00</p><p><b>performer: </b>Practitioner/Responsible</p><p><b>result: </b>98,0000000000 mmol/L</p><p><b>interpretation: </b></p><p><b>referenceRange: </b> // Low: 98,00000 mmol/L // High: 107,00000 mmol/L // </p></div>"},"status":"final","code":{"coding":[{"system":"http://loinc.org","code":"2075-0"}],"text":"Chloride"},"subject":{"reference":"Patient/6388178"},"effectiveDateTime":"2021-11-19T00:00:00+01:00","issued":"2021-11-19T12:02:19+01:00","performer":[{"reference":"Practitioner/Responsible"}],"valueQuantity":{"value":98.0000000000,"unit":"mmol/L","system":"http://unitsofmeasure.org","code":"mmol/L"},"referenceRange":[{"low":{"value":98.00000,"unit":"mmol/L","system":"http://unitsofmeasure.org","code":"mmol/L"},"high":{"value":107.00000,"unit":"mmol/L","system":"http://unitsofmeasure.org","code":"mmol/L"}}]}},{"fullUrl":"Observation/Observation.2.0.0.4","resource":{"resourceType":"Observation","id":"Observation.2.0.0.4","meta":{"profile":["https://www.ehealth.fgov.be/standards/fhir/StructureDefinition/be-observation-laboratory"]},"text":{"status":"generated","div":"<div xmlns=\"http://www.w3.org/1999/xhtml\"><p><b>code: </b>http://loinc.org 2000-8 Calcium</p><p><b>subject: </b>Patient/6388178</p><p><b>effective: </b>2021-11-19T00:00:00+01:00</p><p><b>performer: </b>Practitioner/Responsible</p><p><b>result: </b>2,5500000000 mmol/L</p><p><b>interpretation: </b>H</p><p><b>referenceRange: </b> // Low: 2,05000 mmol/L // High: 2,40000 mmol/L // </p></div>"},"status":"final","code":{"coding":[{"system":"http://loinc.org","code":"2000-8"}],"text":"Calcium"},"subject":{"reference":"Patient/6388178"},"effectiveDateTime":"2021-11-19T00:00:00+01:00","issued":"2021-11-19T12:02:21+01:00","performer":[{"reference":"Practitioner/Responsible"}],"valueQuantity":{"value":2.5500000000,"unit":"mmol/L","system":"http://unitsofmeasure.org","code":"mmol/L"},"interpretation":[{"coding":[{"system":"http://terminology.hl7.org/CodeSystem/v3-ObservationInterpretation","code":"H"}]}],"referenceRange":[{"low":{"value":2.05000,"unit":"mmol/L","system":"http://unitsofmeasure.org","code":"mmol/L"},"high":{"value":2.40000,"unit":"mmol/L","system":"http://unitsofmeasure.org","code":"mmol/L"}}]}},{"fullUrl":"Observation/Observation.3.0.0.0","resource":{"resourceType":"Observation","id":"Observation.3.0.0.0","meta":{"profile":["https://www.ehealth.fgov.be/standards/fhir/StructureDefinition/be-observation-laboratory"]},"text":{"status":"generated","div":"<div xmlns=\"http://www.w3.org/1999/xhtml\"><p><b>code: </b>EIWITMETABOLISME</p><p><b>subject: </b>Patient/6388178</p><p><b>effective: </b>2021-11-19T00:00:00+01:00</p><p><b>performer: </b>Practitioner/Responsible</p><p><b>member: </b> // Observation/Observation.3.0.0.1 // </p></div>"},"status":"final","code":{"text":"EIWITMETABOLISME"},"subject":{"reference":"Patient/6388178"},"effectiveDateTime":"2021-11-19T00:00:00+01:00","performer":[{"reference":"Practitioner/Responsible"}],"hasMember":[{"reference":"Observation/Observation.3.0.0.1"}]}},{"fullUrl":"Observation/Observation.3.0.0.1","resource":{"resourceType":"Observation","id":"Observation.3.0.0.1","meta":{"profile":["https://www.ehealth.fgov.be/standards/fhir/StructureDefinition/be-observation-laboratory"]},"text":{"status":"generated","div":"<div xmlns=\"http://www.w3.org/1999/xhtml\"><p><b>code: </b>http://loinc.org 2885-2 Totaal eiwit</p><p><b>subject: </b>Patient/6388178</p><p><b>effective: </b>2021-11-19T00:00:00+01:00</p><p><b>performer: </b>Practitioner/Responsible</p><p><b>result: </b>84,0000000000 g/L</p><p><b>interpretation: </b>H</p><p><b>referenceRange: </b> // Low: 60,00000 g/L // High: 80,00000 g/L // </p></div>"},"status":"final","code":{"coding":[{"system":"http://loinc.org","code":"2885-2"}],"text":"Totaal eiwit"},"subject":{"reference":"Patient/6388178"},"effectiveDateTime":"2021-11-19T00:00:00+01:00","issued":"2021-11-19T12:02:25+01:00","performer":[{"reference":"Practitioner/Responsible"}],"valueQuantity":{"value":84.0000000000,"unit":"g/L","system":"http://unitsofmeasure.org","code":"g/L"},"interpretation":[{"coding":[{"system":"http://terminology.hl7.org/CodeSystem/v3-ObservationInterpretation","code":"H"}]}],"referenceRange":[{"low":{"value":60.00000,"unit":"g/L","system":"http://unitsofmeasure.org","code":"g/L"},"high":{"value":80.00000,"unit":"g/L","system":"http://unitsofmeasure.org","code":"g/L"}}]}},{"fullUrl":"Observation/Observation.4.0.0.0","resource":{"resourceType":"Observation","id":"Observation.4.0.0.0","meta":{"profile":["https://www.ehealth.fgov.be/standards/fhir/StructureDefinition/be-observation-laboratory"]},"text":{"status":"generated","div":"<div xmlns=\"http://www.w3.org/1999/xhtml\"><p><b>code: </b>LEVER EN GAL</p><p><b>subject: </b>Patient/6388178</p><p><b>effective: </b>2021-11-19T00:00:00+01:00</p><p><b>performer: </b>Practitioner/Responsible</p><p><b>member: </b> // Observation/Observation.4.0.0.1 // Observation/Observation.4.0.0.2 // Observation/Observation.4.0.0.3 // Observation/Observation.4.0.0.4 // </p></div>"},"status":"final","code":{"text":"LEVER EN GAL"},"subject":{"reference":"Patient/6388178"},"effectiveDateTime":"2021-11-19T00:00:00+01:00","performer":[{"reference":"Practitioner/Responsible"}],"hasMember":[{"reference":"Observation/Observation.4.0.0.1"},{"reference":"Observation/Observation.4.0.0.2"},{"reference":"Observation/Observation.4.0.0.3"},{"reference":"Observation/Observation.4.0.0.4"}]}},{"fullUrl":"Observation/Observation.4.0.0.1","resource":{"resourceType":"Observation","id":"Observation.4.0.0.1","meta":{"profile":["https://www.ehealth.fgov.be/standards/fhir/StructureDefinition/be-observation-laboratory"]},"text":{"status":"generated","div":"<div xmlns=\"http://www.w3.org/1999/xhtml\"><p><b>code: </b>http://loinc.org 1920-8 GOT (AST)</p><p><b>subject: </b>Patient/6388178</p><p><b>effective: </b>2021-11-19T00:00:00+01:00</p><p><b>performer: </b>Practitioner/Responsible</p><p><b>result: </b>155,0000000000 U/L</p><p><b>interpretation: </b>H</p><p><b>referenceRange: </b> // High: 40,00000 U/L // </p></div>"},"status":"final","code":{"coding":[{"system":"http://loinc.org","code":"1920-8"}],"text":"GOT (AST)"},"subject":{"reference":"Patient/6388178"},"effectiveDateTime":"2021-11-19T00:00:00+01:00","issued":"2021-11-19T12:02:33+01:00","performer":[{"reference":"Practitioner/Responsible"}],"valueQuantity":{"value":155.0000000000,"unit":"U/L","system":"http://unitsofmeasure.org","code":"U/L"},"interpretation":[{"coding":[{"system":"http://terminology.hl7.org/CodeSystem/v3-ObservationInterpretation","code":"H"}]}],"referenceRange":[{"high":{"value":40.00000,"unit":"U/L","system":"http://unitsofmeasure.org","code":"U/L"}}]}},{"fullUrl":"Observation/Observation.4.0.0.2","resource":{"resourceType":"Observation","id":"Observation.4.0.0.2","meta":{"profile":["https://www.ehealth.fgov.be/standards/fhir/StructureDefinition/be-observation-laboratory"]},"text":{"status":"generated","div":"<div xmlns=\"http://www.w3.org/1999/xhtml\"><p><b>code: </b>http://loinc.org 1742-6 GPT (ALT)</p><p><b>subject: </b>Patient/6388178</p><p><b>effective: </b>2021-11-19T00:00:00+01:00</p><p><b>performer: </b>Practitioner/Responsible</p><p><b>result: </b>102,0000000000 U/L</p><p><b>interpretation: </b>H</p><p><b>referenceRange: </b> // High: 41,00000 U/L // </p></div>"},"status":"final","code":{"coding":[{"system":"http://loinc.org","code":"1742-6"}],"text":"GPT (ALT)"},"subject":{"reference":"Patient/6388178"},"effectiveDateTime":"2021-11-19T00:00:00+01:00","issued":"2021-11-19T12:02:51+01:00","performer":[{"reference":"Practitioner/Responsible"}],"valueQuantity":{"value":102.0000000000,"unit":"U/L","system":"http://unitsofmeasure.org","code":"U/L"},"interpretation":[{"coding":[{"system":"http://terminology.hl7.org/CodeSystem/v3-ObservationInterpretation","code":"H"}]}],"referenceRange":[{"high":{"value":41.00000,"unit":"U/L","system":"http://unitsofmeasure.org","code":"U/L"}}]}},{"fullUrl":"Observation/Observation.4.0.0.3","resource":{"resourceType":"Observation","id":"Observation.4.0.0.3","meta":{"profile":["https://www.ehealth.fgov.be/standards/fhir/StructureDefinition/be-observation-laboratory"]},"text":{"status":"generated","div":"<div xmlns=\"http://www.w3.org/1999/xhtml\"><p><b>code: </b>http://loinc.org 2324-2 Gamma-GT</p><p><b>subject: </b>Patient/6388178</p><p><b>effective: </b>2021-11-19T00:00:00+01:00</p><p><b>performer: </b>Practitioner/Responsible</p><p><b>result: </b>68,0000000000 U/L</p><p><b>interpretation: </b>H</p><p><b>referenceRange: </b> // High: 61,00000 U/L // </p></div>"},"status":"final","code":{"coding":[{"system":"http://loinc.org","code":"2324-2"}],"text":"Gamma-GT"},"subject":{"reference":"Patient/6388178"},"effectiveDateTime":"2021-11-19T00:00:00+01:00","issued":"2021-11-19T12:02:54+01:00","performer":[{"reference":"Practitioner/Responsible"}],"valueQuantity":{"value":68.0000000000,"unit":"U/L","system":"http://unitsofmeasure.org","code":"U/L"},"interpretation":[{"coding":[{"system":"http://terminology.hl7.org/CodeSystem/v3-ObservationInterpretation","code":"H"}]}],"referenceRange":[{"high":{"value":61.00000,"unit":"U/L","system":"http://unitsofmeasure.org","code":"U/L"}}]}},{"fullUrl":"Observation/Observation.4.0.0.4","resource":{"resourceType":"Observation","id":"Observation.4.0.0.4","meta":{"profile":["https://www.ehealth.fgov.be/standards/fhir/StructureDefinition/be-observation-laboratory"]},"text":{"status":"generated","div":"<div xmlns=\"http://www.w3.org/1999/xhtml\"><p><b>code: </b>http://loinc.org 2532-0 LDH</p><p><b>subject: </b>Patient/6388178</p><p><b>effective: </b>2021-11-19T00:00:00+01:00</p><p><b>performer: </b>Practitioner/Responsible</p><p><b>result: </b>651,0000000000 U/L</p><p><b>interpretation: </b>HH</p><p><b>referenceRange: </b> // High: 250,00000 U/L // </p></div>"},"status":"final","code":{"coding":[{"system":"http://loinc.org","code":"2532-0"}],"text":"LDH"},"subject":{"reference":"Patient/6388178"},"effectiveDateTime":"2021-11-19T00:00:00+01:00","issued":"2021-11-19T12:02:57+01:00","performer":[{"reference":"Practitioner/Responsible"}],"valueQuantity":{"value":651.0000000000,"unit":"U/L","system":"http://unitsofmeasure.org","code":"U/L"},"interpretation":[{"coding":[{"system":"http://terminology.hl7.org/CodeSystem/v3-ObservationInterpretation","code":"HH"}]}],"referenceRange":[{"high":{"value":250.00000,"unit":"U/L","system":"http://unitsofmeasure.org","code":"U/L"}}]}},{"fullUrl":"Observation/Observation.5.0.0.0","resource":{"resourceType":"Observation","id":"Observation.5.0.0.0","meta":{"profile":["https://www.ehealth.fgov.be/standards/fhir/StructureDefinition/be-observation-laboratory"]},"text":{"status":"generated","div":"<div xmlns=\"http://www.w3.org/1999/xhtml\"><p><b>code: </b>OPMERKINGEN</p><p><b>subject: </b>Patient/6388178</p><p><b>effective: </b>2021-11-19T00:00:00+01:00</p><p><b>performer: </b>Practitioner/Responsible</p><p><b>member: </b> // Observation/Observation.5.0.0.1 // </p></div>"},"status":"final","code":{"text":"OPMERKINGEN"},"subject":{"reference":"Patient/6388178"},"effectiveDateTime":"2021-11-19T00:00:00+01:00","performer":[{"reference":"Practitioner/Responsible"}],"hasMember":[{"reference":"Observation/Observation.5.0.0.1"}]}},{"fullUrl":"Observation/Observation.5.0.0.1","resource":{"resourceType":"Observation","id":"Observation.5.0.0.1","meta":{"profile":["https://www.ehealth.fgov.be/standards/fhir/StructureDefinition/be-observation-laboratory"]},"text":{"status":"generated","div":"<div xmlns=\"http://www.w3.org/1999/xhtml\"><p><b>code: </b>http://loinc.org 94330-8 Uitzicht serum</p><p><b>subject: </b>Patient/6388178</p><p><b>effective: </b>2021-11-19T00:00:00+01:00</p><p><b>performer: </b>Practitioner/Responsible</p><p><b>result: </b>Hemolytisch staal: +++\r\nDit kan volgende analysen beïnvloeden:\r\nGamma-GT, GPT (ALT), GOT (AST), Kalium, LDH</p><p><b>interpretation: </b></p></div>"},"status":"final","code":{"coding":[{"system":"http://loinc.org","code":"94330-8"}],"text":"Uitzicht serum"},"subject":{"reference":"Patient/6388178"},"effectiveDateTime":"2021-11-19T00:00:00+01:00","issued":"2021-11-19T12:03:20+01:00","performer":[{"reference":"Practitioner/Responsible"}],"valueString":"Hemolytisch staal: +++\r\nDit kan volgende analysen beïnvloeden:\r\nGamma-GT, GPT (ALT), GOT (AST), Kalium, LDH"}},{"fullUrl":"Observation/Observation.6.0.0.0","resource":{"resourceType":"Observation","id":"Observation.6.0.0.0","meta":{"profile":["https://www.ehealth.fgov.be/standards/fhir/StructureDefinition/be-observation-laboratory"]},"text":{"status":"generated","div":"<div xmlns=\"http://www.w3.org/1999/xhtml\"><p><b>code: </b>COMMENTAAR</p><p><b>subject: </b>Patient/6388178</p><p><b>effective: </b>2021-11-19T00:00:00+01:00</p><p><b>performer: </b>Practitioner/Responsible</p><p><b>member: </b> // Observation/Observation.6.0.0.1 // </p></div>"},"status":"final","code":{"text":"COMMENTAAR"},"subject":{"reference":"Patient/6388178"},"effectiveDateTime":"2021-11-19T00:00:00+01:00","performer":[{"reference":"Practitioner/Responsible"}],"hasMember":[{"reference":"Observation/Observation.6.0.0.1"}]}},{"fullUrl":"Observation/Observation.6.0.0.1","resource":{"resourceType":"Observation","id":"Observation.6.0.0.1","meta":{"profile":["https://www.ehealth.fgov.be/standards/fhir/StructureDefinition/be-observation-laboratory"]},"text":{"status":"generated","div":"<div xmlns=\"http://www.w3.org/1999/xhtml\"><p><b>code: </b>http://loinc.org 86468-6</p><p><b>subject: </b>Patient/6388178</p><p><b>effective: </b>2021-11-19T00:00:00+01:00</p><p><b>performer: </b>Practitioner/Responsible</p><p><b>result: </b>Hemolytisch staal?\r\nResultaten onder voorbehoud.</p><p><b>interpretation: </b></p></div>"},"status":"final","code":{"coding":[{"system":"http://loinc.org","code":"86468-6"}]},"subject":{"reference":"Patient/6388178"},"effectiveDateTime":"2021-11-19T00:00:00+01:00","issued":"2021-11-19T12:04:16+01:00","performer":[{"reference":"Practitioner/Responsible"}],"valueString":"Hemolytisch staal?\r\nResultaten onder voorbehoud."}},{"fullUrl":"DiagnosticReport/815333046","resource":{"resourceType":"DiagnosticReport","id":"815333046","meta":{"versionId":"4","profile":["https://www.ehealth.fgov.be/standards/fhir/StructureDefinition/be-laboratory-report"]},"language":"nl","text":{"status":"generated","div":"<div xmlns=\"http://www.w3.org/1999/xhtml\" xml:lang=\"nl\" lang=\"nl\"><p><b>id: </b>815333046</p><p><b>basedOn: </b>ServiceRequest/815333046</p><p><b>status: </b>final</p><p><b>category: </b>http://terminology.hl7.org/CodeSystem/v2-0074 LAB Laboratory</p><p><b>code: </b>http://loinc.org 26436-6 Laboratory studies (set)</p><p><b>subject: </b>Patient/6388178</p><p><b>effective: </b>2021-11-19T00:00:00+01:00</p><p><b>issued: </b>2021-11-24T09:06:30+01:00</p><p><b>performer: </b>Organization/81365677998</p><p><b>resultsInterpreter: </b>Practitioner/Responsible</p><p><b>specimen: </b> // Specimen/002815333046 // Specimen/001815333046 // </p><p><b>result: </b> // Observation/Observation.0.0.0.1 // Observation/Observation.1.0.0.0 // Observation/Observation.2.0.0.0 // Observation/Observation.3.0.0.0 // Observation/Observation.4.0.0.0 // Observation/Observation.5.0.0.0 // Observation/Observation.6.0.0.0 // </p></div>"},"identifier":[{"system":"http://www.macsys.be/hl7/DiagnosticReport","value":"815333046"}],"basedOn":[{"reference":"ServiceRequest/815333046"}],"status":"final","category":[{"coding":[{"system":"http://terminology.hl7.org/CodeSystem/v2-0074","code":"LAB","display":"Laboratory"}]}],"code":{"coding":[{"system":"http://loinc.org","code":"26436-6","display":"Laboratory studies (set)"}]},"subject":{"reference":"Patient/6388178"},"effectiveDateTime":"2021-11-19T00:00:00+01:00","issued":"2021-11-24T09:06:30+01:00","performer":[{"reference":"Organization/81365677998"}],"resultsInterpreter":[{"reference":"Practitioner/Responsible"}],"specimen":[{"reference":"Specimen/002815333046"},{"reference":"Specimen/001815333046"}],"result":[{"reference":"Observation/Observation.0.0.0.1"},{"reference":"Observation/Observation.1.0.0.0"},{"reference":"Observation/Observation.2.0.0.0"},{"reference":"Observation/Observation.3.0.0.0"},{"reference":"Observation/Observation.4.0.0.0"},{"reference":"Observation/Observation.5.0.0.0"},{"reference":"Observation/Observation.6.0.0.0"}]}},{"fullUrl":"Organization/81365677998","resource":{"resourceType":"Organization","id":"81365677998","meta":{"profile":["https://www.ehealth.fgov.be/standards/fhir/StructureDefinition/be-organization"]},"text":{"status":"generated","div":"<div xmlns=\"http://www.w3.org/1999/xhtml\"><p><b>identifier: </b>81365677998</p><p><b>name: </b>CENTRUM VOOR MEDISCHE ANALYSE</p><p><b>contact: </b>014/28.50.00</p><p><b>address: </b>Oud-Strijderslaan 199 2200 Herentals BE</p></div>"},"identifier":[{"use":"official","type":{"coding":[{"system":"http://terminology.hl7.org/CodeSystem/v2-0203","code":"MD","display":"Medical License number"}]},"system":"https://www.ehealth.fgov.be/standards/fhir/NamingSystem/nihdi","value":"81365677998"}],"active":true,"type":[{"coding":[{"system":"https://www.ehealth.fgov.be/standards/fhir/CodeSystem/cd-hcparty","code":"orglaboratory"}]}],"name":"CENTRUM VOOR MEDISCHE ANALYSE","telecom":[{"system":"phone","value":"014/28.50.00","use":"work"},{"system":"fax","value":"014/22.56.08","use":"work"},{"system":"email","value":"info@cma.be","use":"work"},{"system":"url","value":"http://www.cma.be","use":"work"}],"address":[{"use":"work","type":"both","line":["Oud-Strijderslaan 199"],"city":"Herentals","postalCode":"2200","country":"BE"}]}},{"fullUrl":"Practitioner/8152","resource":{"resourceType":"Practitioner","id":"8152","meta":{"profile":["https://www.ehealth.fgov.be/standards/fhir/StructureDefinition/be-practitioner"]},"text":{"status":"generated","div":"<div xmlns=\"http://www.w3.org/1999/xhtml\"><p><b>identifier: </b>11849242860</p><p><b>name: </b>Waegemans Stefan</p><p><b>contact: </b>stefan.waegemans@cma.be</p><p><b>address: </b>Willekensmolenstraat 88/2 3500 Hasselt BE</p></div>"},"identifier":[{"use":"official","system":"https://www.ehealth.fgov.be/standards/fhir/NamingSystem/nihdi","value":"11849242860"}],"name":[{"use":"official","family":"Waegemans","given":["Stefan"],"prefix":["Dr."]}],"telecom":[{"system":"email","value":"stefan.waegemans@cma.be","use":"work"},{"system":"fax","value":"(+32)11/243291","use":"work"},{"system":"phone","value":"(+32)11/225288","use":"work"}],"address":[{"use":"work","type":"both","line":["Willekensmolenstraat 88/2"],"city":"Hasselt","postalCode":"3500","country":"BE"}],"gender":"unknown"}},{"fullUrl":"Practitioner/Responsible","resource":{"resourceType":"Practitioner","id":"Responsible","meta":{"profile":["https://www.ehealth.fgov.be/standards/fhir/StructureDefinition/be-practitioner"]},"text":{"status":"generated","div":"<div xmlns=\"http://www.w3.org/1999/xhtml\"><p><b>identifier: </b>68071432800</p><p><b>name: </b>Engelen Frans</p><p><b>contact: </b>014/28.50.00</p><p><b>address: </b>Oud-Strijderslaan 199 2200 Herentals BE</p></div>"},"identifier":[{"use":"official","system":"https://www.ehealth.fgov.be/standards/fhir/NamingSystem/nihdi","value":"68071432800"}],"name":[{"use":"official","family":"Engelen","given":["Frans"]}],"telecom":[{"system":"phone","value":"014/28.50.00","use":"work"}],"address":[{"use":"work","type":"both","line":["Oud-Strijderslaan 199"],"city":"Herentals","postalCode":"2200","country":"BE"}],"gender":"unknown"}},{"fullUrl":"Patient/6388178","resource":{"resourceType":"Patient","id":"6388178","meta":{"profile":["https://www.ehealth.fgov.be/standards/fhir/StructureDefinition/be-patient"]},"text":{"status":"generated","div":"<div xmlns=\"http://www.w3.org/1999/xhtml\"><p><b>identifier: </b>01482105560</p><p><b>name: </b>Cozo-Een Testvoornaam</p><p><b>gender: </b>other</p><p><b>birthDate: </b>1901-08-21</p><p><b>address: </b>De Pintelaan 185 9000 Gent BE</p></div>"},"identifier":[{"use":"official","system":"https://www.ehealth.fgov.be/standards/fhir/NamingSystem/ssin","value":"01482105560"}],"active":true,"name":[{"use":"official","family":"Cozo-Een","given":["Testvoornaam"]}],"address":[{"use":"home","type":"both","line":["De Pintelaan 185"],"city":"Gent","postalCode":"9000","country":"BE"}],"gender":"other","birthDate":"1901-08-21"}},{"fullUrl":"ServiceRequest/815333046","resource":{"resourceType":"ServiceRequest","id":"815333046","text":{"status":"generated","div":"<div xmlns=\"http://www.w3.org/1999/xhtml\"><p><b>id: </b>815333046</p><p><b>intent: </b>order</p><p><b>status: </b>completed</p><p><b>category: </b>http://snomed.info/sct 108252007 Laboratory procedure</p><p><b>subject: </b>Patient/6388178</p><p><b>requester: </b>Practitioner/8152</p><p><b>authoredOn: </b>2021-11-19T11:56:00+01:00</p></div>"},"identifier":[{"system":"http://www.macsys.be/hl7/ServiceRequest","value":"815333046"}],"status":"completed","intent":"order","category":[{"coding":[{"system":"http://snomed.info/sct","code":"108252007","display":"Laboratory procedure"}]}],"subject":{"reference":"Patient/6388178"},"priority":"routine","authoredOn":"2021-11-19T11:56:00+01:00","requester":{"reference":"Practitioner/8152"}}}]}