{"resourceType":"Bundle","type":"document","timestamp":"2021-12-20T14:43:27Z","identifier":{"system":"https://www.ehealth.fgov.be/lab-report/bundle-id","value":"81365677998.815333044.2"},"entry":[{
    "fullUrl": "Composition/815333044",
    "resource": {
        "resourceType": "Composition",
        "id": "815333044",
        "meta": {
            "profile": [
                "https://www.ehealth.fgov.be/standards/fhir/StructureDefinition/be-laboratory-report-composition"
            ]
        },
        "text": {
            "status": "generated",
            "div": "<div xmlns=\"http://www.w3.org/1999/xhtml\"><p><b>id: </b>815333044</p><p><b>status: </b>final</p><p><b>type: </b>http://loinc.org 11502-2 Laboratory report</p><p><b>date: </b>2021-12-20T14:43:27+01:00</p><p><b>author: </b>Practitioner/Responsible</p><p><b>title: </b>Laboratory Report</p></div>"
        },
        "identifier": {
            "system": "http://www.macsys.be/hl7/Composition",
            "value": "815333044"
        },
        "status": "final",
        "type": {
            "coding": [
                {
                    "system": "http://loinc.org",
                    "code": "11502-2"
                }
            ],
            "text": "Laboratory report"
        },
        "subject": {
            "reference": "Patient/7168528"
        },
        "date": "2021-12-20T14:43:27+01:00",
        "author": [
            {
                "reference": "Practitioner/Responsible"
            }
        ],
        "title": "Laboratory Report",
        "section": [
            {
                "entry": [
                    {
                        "reference": "DiagnosticReport/815333044"
                    }
                ]
            }
        ]
    }
}
,{
    "fullUrl": "Specimen/002815333044",
    "resource": {
        "resourceType": "Specimen",
        "id": "002815333044",
        "meta": {
            "profile": [
                "https://www.ehealth.fgov.be/standards/fhir/StructureDefinition/be-specimen-laboratory"
            ]
        },
        "text": {
            "status": "generated",
            "div": "<div xmlns=\"http://www.w3.org/1999/xhtml\"><p><b>id: </b>002815333044</p><p><b>status: </b>available</p><p><b>type: </b>http://terminology.hl7.org/CodeSystem/v2-0487 BLDV Blood venous EDTA-volbloed</p><p><b>receivedTime: </b>2021-11-04T13:15:49+01:00</p><p><b>collector: </b>Practitioner/69</p></div>"
        },
        "identifier": [
            {
                "system": "http://www.macsys.be/hl7/Specimen",
                "value": "002815333044"
            }
        ],
        "status": "available",
        "type": {
            "coding": [
                {
                    "system": "http://terminology.hl7.org/CodeSystem/v2-0487",
                    "code": "BLDV",
                    "display": "Blood venous"
                }
            ],
            "text": "EDTA-volbloed"
        },
        "subject": {
            "reference": "Patient/7168528"
        },
        "receivedTime": "2021-11-04T13:15:49+01:00",
        "collection": {
            "collectedDateTime": "2021-11-04T00:00:00+01:00",
            "collector": {
                "reference": "Practitioner/69"
            }
        }
    }
}
,{
    "fullUrl": "Specimen/001815333044",
    "resource": {
        "resourceType": "Specimen",
        "id": "001815333044",
        "meta": {
            "profile": [
                "https://www.ehealth.fgov.be/standards/fhir/StructureDefinition/be-specimen-laboratory"
            ]
        },
        "text": {
            "status": "generated",
            "div": "<div xmlns=\"http://www.w3.org/1999/xhtml\"><p><b>id: </b>001815333044</p><p><b>status: </b>available</p><p><b>type: </b>http://terminology.hl7.org/CodeSystem/v2-0487 SER Serum Serum</p><p><b>receivedTime: </b>2021-11-04T13:15:49+01:00</p><p><b>collector: </b>Practitioner/69</p></div>"
        },
        "identifier": [
            {
                "system": "http://www.macsys.be/hl7/Specimen",
                "value": "001815333044"
            }
        ],
        "status": "available",
        "type": {
            "coding": [
                {
                    "system": "http://terminology.hl7.org/CodeSystem/v2-0487",
                    "code": "SER",
                    "display": "Serum"
                }
            ],
            "text": "Serum"
        },
        "subject": {
            "reference": "Patient/7168528"
        },
        "receivedTime": "2021-11-04T13:15:49+01:00",
        "collection": {
            "collectedDateTime": "2021-11-04T00:00:00+01:00",
            "collector": {
                "reference": "Practitioner/69"
            }
        }
    }
}
,{
    "fullUrl": "Observation/Observation.1.0.0.0",
    "resource": {
        "resourceType": "Observation",
        "id": "Observation.1.0.0.0",
        "meta": {
            "profile": [
                "https://www.ehealth.fgov.be/standards/fhir/StructureDefinition/be-observation-laboratory"
            ]
        },
        "text": {
            "status": "generated",
            "div": "<div xmlns=\"http://www.w3.org/1999/xhtml\"><p><b>code: </b>HEMATOLOGIE</p><p><b>subject: </b>Patient/7168528</p><p><b>effective: </b>2021-11-04T00:00:00+01:00</p><p><b>performer: </b>Practitioner/Responsible</p><p><b>member: </b> // Observation/Observation.1.0.0.1 // Observation/Observation.1.0.0.2 // Observation/Observation.1.0.0.3 // Observation/Observation.1.0.0.4 // Observation/Observation.1.0.0.5 // Observation/Observation.1.0.0.6 // Observation/Observation.1.0.0.7 // Observation/Observation.1.0.0.8 // Observation/Observation.1.1.0.0 // Observation/Observation.1.2.0.0 // Observation/Observation.1.3.0.1 // </p></div>"
        },
        "status": "final",
        "code": {
            "text": "HEMATOLOGIE"
        },
        "subject": {
            "reference": "Patient/7168528"
        },
        "effectiveDateTime": "2021-11-04T00:00:00+01:00",
        "performer": [
            {
                "reference": "Practitioner/Responsible"
            }
        ],
        "hasMember": [
            {
                "reference": "Observation/Observation.1.0.0.1"
            },
            {
                "reference": "Observation/Observation.1.0.0.2"
            },
            {
                "reference": "Observation/Observation.1.0.0.3"
            },
            {
                "reference": "Observation/Observation.1.0.0.4"
            },
            {
                "reference": "Observation/Observation.1.0.0.5"
            },
            {
                "reference": "Observation/Observation.1.0.0.6"
            },
            {
                "reference": "Observation/Observation.1.0.0.7"
            },
            {
                "reference": "Observation/Observation.1.0.0.8"
            },
            {
                "reference": "Observation/Observation.1.1.0.0"
            },
            {
                "reference": "Observation/Observation.1.2.0.0"
            },
            {
                "reference": "Observation/Observation.1.3.0.1"
            }
        ]
    }
}
,{
    "fullUrl": "Observation/Observation.1.0.0.1",
    "resource": {
        "resourceType": "Observation",
        "id": "Observation.1.0.0.1",
        "meta": {
            "profile": [
                "https://www.ehealth.fgov.be/standards/fhir/StructureDefinition/be-observation-laboratory"
            ]
        },
        "text": {
            "status": "generated",
            "div": "<div xmlns=\"http://www.w3.org/1999/xhtml\"><p><b>code: </b>http://loinc.org 4537-7 Bezinking na 1 uur</p><p><b>subject: </b>Patient/7168528</p><p><b>effective: </b>2021-11-04T00:00:00+01:00</p><p><b>performer: </b>Practitioner/Responsible</p><p><b>result: </b>10 mm</p><p><b>specimen: </b>Specimen/002815333044</p><p><b>referenceRange: </b> // High: 40 mm // </p></div>"
        },
        "status": "final",
        "code": {
            "coding": [
                {
                    "system": "http://loinc.org",
                    "code": "4537-7"
                }
            ],
            "text": "Bezinking na 1 uur"
        },
        "subject": {
            "reference": "Patient/7168528"
        },
        "effectiveDateTime": "2021-11-04T00:00:00+01:00",
        "issued": "2021-11-04T13:16:35+01:00",
        "performer": [
            {
                "reference": "Practitioner/Responsible"
            }
        ],
        "valueQuantity": {
            "value": 10,
            "unit": "mm",
            "system": "http://unitsofmeasure.org",
            "code": "mm"
        },
        "specimen": {
            "reference": "Specimen/002815333044"
        },
        "referenceRange": [
            {
                "high": {
                    "value": 40,
                    "unit": "mm",
                    "system": "http://unitsofmeasure.org",
                    "code": "mm"
                }
            }
        ]
    }
}
,{
    "fullUrl": "Observation/Observation.1.0.0.2",
    "resource": {
        "resourceType": "Observation",
        "id": "Observation.1.0.0.2",
        "meta": {
            "profile": [
                "https://www.ehealth.fgov.be/standards/fhir/StructureDefinition/be-observation-laboratory"
            ]
        },
        "text": {
            "status": "generated",
            "div": "<div xmlns=\"http://www.w3.org/1999/xhtml\"><p><b>code: </b>http://loinc.org 789-8 Erytrocyten</p><p><b>subject: </b>Patient/7168528</p><p><b>effective: </b>2021-11-04T00:00:00+01:00</p><p><b>performer: </b>Practitioner/Responsible</p><p><b>result: </b>4,69 10*6/uL</p><p><b>specimen: </b>Specimen/002815333044</p><p><b>referenceRange: </b> // Low: 4,35 10*6/uL // High: 5,61 10*6/uL // </p></div>"
        },
        "status": "final",
        "code": {
            "coding": [
                {
                    "system": "http://loinc.org",
                    "code": "789-8"
                }
            ],
            "text": "Erytrocyten"
        },
        "subject": {
            "reference": "Patient/7168528"
        },
        "effectiveDateTime": "2021-11-04T00:00:00+01:00",
        "issued": "2021-11-04T13:16:40+01:00",
        "performer": [
            {
                "reference": "Practitioner/Responsible"
            }
        ],
        "valueQuantity": {
            "value": 4.69,
            "unit": "10*6/uL",
            "system": "http://unitsofmeasure.org",
            "code": "10*6/uL"
        },
        "specimen": {
            "reference": "Specimen/002815333044"
        },
        "referenceRange": [
            {
                "low": {
                    "value": 4.35,
                    "unit": "10*6/uL",
                    "system": "http://unitsofmeasure.org",
                    "code": "10*6/uL"
                },
                "high": {
                    "value": 5.61,
                    "unit": "10*6/uL",
                    "system": "http://unitsofmeasure.org",
                    "code": "10*6/uL"
                }
            }
        ]
    }
}
,{
    "fullUrl": "Observation/Observation.1.0.0.3",
    "resource": {
        "resourceType": "Observation",
        "id": "Observation.1.0.0.3",
        "meta": {
            "profile": [
                "https://www.ehealth.fgov.be/standards/fhir/StructureDefinition/be-observation-laboratory"
            ]
        },
        "text": {
            "status": "generated",
            "div": "<div xmlns=\"http://www.w3.org/1999/xhtml\"><p><b>code: </b>http://loinc.org 718-7 Hemoglobine</p><p><b>subject: </b>Patient/7168528</p><p><b>effective: </b>2021-11-04T00:00:00+01:00</p><p><b>performer: </b>Practitioner/Responsible</p><p><b>result: </b>14,8 g/dL</p><p><b>specimen: </b>Specimen/002815333044</p><p><b>referenceRange: </b> // Low: 13,4 g/dL // High: 16,5 g/dL // </p></div>"
        },
        "status": "final",
        "code": {
            "coding": [
                {
                    "system": "http://loinc.org",
                    "code": "718-7"
                }
            ],
            "text": "Hemoglobine"
        },
        "subject": {
            "reference": "Patient/7168528"
        },
        "effectiveDateTime": "2021-11-04T00:00:00+01:00",
        "issued": "2021-11-04T13:16:46+01:00",
        "performer": [
            {
                "reference": "Practitioner/Responsible"
            }
        ],
        "valueQuantity": {
            "value": 14.8,
            "unit": "g/dL",
            "system": "http://unitsofmeasure.org",
            "code": "g/dL"
        },
        "specimen": {
            "reference": "Specimen/002815333044"
        },
        "referenceRange": [
            {
                "low": {
                    "value": 13.4,
                    "unit": "g/dL",
                    "system": "http://unitsofmeasure.org",
                    "code": "g/dL"
                },
                "high": {
                    "value": 16.5,
                    "unit": "g/dL",
                    "system": "http://unitsofmeasure.org",
                    "code": "g/dL"
                }
            }
        ]
    }
}
,{
    "fullUrl": "Observation/Observation.1.0.0.4",
    "resource": {
        "resourceType": "Observation",
        "id": "Observation.1.0.0.4",
        "meta": {
            "profile": [
                "https://www.ehealth.fgov.be/standards/fhir/StructureDefinition/be-observation-laboratory"
            ]
        },
        "text": {
            "status": "generated",
            "div": "<div xmlns=\"http://www.w3.org/1999/xhtml\"><p><b>code: </b>http://loinc.org 4544-3 Hematocriet</p><p><b>subject: </b>Patient/7168528</p><p><b>effective: </b>2021-11-04T00:00:00+01:00</p><p><b>performer: </b>Practitioner/Responsible</p><p><b>result: </b>41,0 %</p><p><b>specimen: </b>Specimen/002815333044</p><p><b>referenceRange: </b> // Low: 39,7 % // High: 49,3 % // </p></div>"
        },
        "status": "final",
        "code": {
            "coding": [
                {
                    "system": "http://loinc.org",
                    "code": "4544-3"
                }
            ],
            "text": "Hematocriet"
        },
        "subject": {
            "reference": "Patient/7168528"
        },
        "effectiveDateTime": "2021-11-04T00:00:00+01:00",
        "issued": "2021-11-04T13:16:49+01:00",
        "performer": [
            {
                "reference": "Practitioner/Responsible"
            }
        ],
        "valueQuantity": {
            "value": 41.0,
            "unit": "%",
            "system": "http://unitsofmeasure.org",
            "code": "%"
        },
        "specimen": {
            "reference": "Specimen/002815333044"
        },
        "referenceRange": [
            {
                "low": {
                    "value": 39.7,
                    "unit": "%",
                    "system": "http://unitsofmeasure.org",
                    "code": "%"
                },
                "high": {
                    "value": 49.3,
                    "unit": "%",
                    "system": "http://unitsofmeasure.org",
                    "code": "%"
                }
            }
        ]
    }
}
,{
    "fullUrl": "Observation/Observation.1.0.0.5",
    "resource": {
        "resourceType": "Observation",
        "id": "Observation.1.0.0.5",
        "meta": {
            "profile": [
                "https://www.ehealth.fgov.be/standards/fhir/StructureDefinition/be-observation-laboratory"
            ]
        },
        "text": {
            "status": "generated",
            "div": "<div xmlns=\"http://www.w3.org/1999/xhtml\"><p><b>code: </b>http://loinc.org 787-2 MCV</p><p><b>subject: </b>Patient/7168528</p><p><b>effective: </b>2021-11-04T00:00:00+01:00</p><p><b>performer: </b>Practitioner/Responsible</p><p><b>result: </b>90,0 fL</p><p><b>specimen: </b>Specimen/002815333044</p><p><b>referenceRange: </b> // Low: 83,2 fL // High: 96,0 fL // </p></div>"
        },
        "status": "final",
        "code": {
            "coding": [
                {
                    "system": "http://loinc.org",
                    "code": "787-2"
                }
            ],
            "text": "MCV"
        },
        "subject": {
            "reference": "Patient/7168528"
        },
        "effectiveDateTime": "2021-11-04T00:00:00+01:00",
        "issued": "2021-11-04T13:16:54+01:00",
        "performer": [
            {
                "reference": "Practitioner/Responsible"
            }
        ],
        "valueQuantity": {
            "value": 90.0,
            "unit": "fL",
            "system": "http://unitsofmeasure.org",
            "code": "fL"
        },
        "specimen": {
            "reference": "Specimen/002815333044"
        },
        "referenceRange": [
            {
                "low": {
                    "value": 83.2,
                    "unit": "fL",
                    "system": "http://unitsofmeasure.org",
                    "code": "fL"
                },
                "high": {
                    "value": 96.0,
                    "unit": "fL",
                    "system": "http://unitsofmeasure.org",
                    "code": "fL"
                }
            }
        ]
    }
}
,{
    "fullUrl": "Observation/Observation.1.0.0.6",
    "resource": {
        "resourceType": "Observation",
        "id": "Observation.1.0.0.6",
        "meta": {
            "profile": [
                "https://www.ehealth.fgov.be/standards/fhir/StructureDefinition/be-observation-laboratory"
            ]
        },
        "text": {
            "status": "generated",
            "div": "<div xmlns=\"http://www.w3.org/1999/xhtml\"><p><b>code: </b>http://loinc.org 785-6 MCH</p><p><b>subject: </b>Patient/7168528</p><p><b>effective: </b>2021-11-04T00:00:00+01:00</p><p><b>performer: </b>Practitioner/Responsible</p><p><b>result: </b>31,6 pg</p><p><b>specimen: </b>Specimen/002815333044</p><p><b>referenceRange: </b> // Low: 27,8 pg // High: 32,5 pg // </p></div>"
        },
        "status": "final",
        "code": {
            "coding": [
                {
                    "system": "http://loinc.org",
                    "code": "785-6"
                }
            ],
            "text": "MCH"
        },
        "subject": {
            "reference": "Patient/7168528"
        },
        "effectiveDateTime": "2021-11-04T00:00:00+01:00",
        "issued": "2021-11-04T13:16:59+01:00",
        "performer": [
            {
                "reference": "Practitioner/Responsible"
            }
        ],
        "valueQuantity": {
            "value": 31.6,
            "unit": "pg",
            "system": "http://unitsofmeasure.org",
            "code": "pg"
        },
        "specimen": {
            "reference": "Specimen/002815333044"
        },
        "referenceRange": [
            {
                "low": {
                    "value": 27.8,
                    "unit": "pg",
                    "system": "http://unitsofmeasure.org",
                    "code": "pg"
                },
                "high": {
                    "value": 32.5,
                    "unit": "pg",
                    "system": "http://unitsofmeasure.org",
                    "code": "pg"
                }
            }
        ]
    }
}
,{
    "fullUrl": "Observation/Observation.1.0.0.7",
    "resource": {
        "resourceType": "Observation",
        "id": "Observation.1.0.0.7",
        "meta": {
            "profile": [
                "https://www.ehealth.fgov.be/standards/fhir/StructureDefinition/be-observation-laboratory"
            ]
        },
        "text": {
            "status": "generated",
            "div": "<div xmlns=\"http://www.w3.org/1999/xhtml\"><p><b>code: </b>http://loinc.org 786-4 MCHC</p><p><b>subject: </b>Patient/7168528</p><p><b>effective: </b>2021-11-04T00:00:00+01:00</p><p><b>performer: </b>Practitioner/Responsible</p><p><b>result: </b>34,9 g/dL</p><p><b>specimen: </b>Specimen/002815333044</p><p><b>referenceRange: </b> // Low: 32,3 g/dL // High: 35,7 g/dL // </p></div>"
        },
        "status": "final",
        "code": {
            "coding": [
                {
                    "system": "http://loinc.org",
                    "code": "786-4"
                }
            ],
            "text": "MCHC"
        },
        "subject": {
            "reference": "Patient/7168528"
        },
        "effectiveDateTime": "2021-11-04T00:00:00+01:00",
        "issued": "2021-11-04T13:17:06+01:00",
        "performer": [
            {
                "reference": "Practitioner/Responsible"
            }
        ],
        "valueQuantity": {
            "value": 34.9,
            "unit": "g/dL",
            "system": "http://unitsofmeasure.org",
            "code": "g/dL"
        },
        "specimen": {
            "reference": "Specimen/002815333044"
        },
        "referenceRange": [
            {
                "low": {
                    "value": 32.3,
                    "unit": "g/dL",
                    "system": "http://unitsofmeasure.org",
                    "code": "g/dL"
                },
                "high": {
                    "value": 35.7,
                    "unit": "g/dL",
                    "system": "http://unitsofmeasure.org",
                    "code": "g/dL"
                }
            }
        ]
    }
}
,{
    "fullUrl": "Observation/Observation.1.0.0.8",
    "resource": {
        "resourceType": "Observation",
        "id": "Observation.1.0.0.8",
        "meta": {
            "profile": [
                "https://www.ehealth.fgov.be/standards/fhir/StructureDefinition/be-observation-laboratory"
            ]
        },
        "text": {
            "status": "generated",
            "div": "<div xmlns=\"http://www.w3.org/1999/xhtml\"><p><b>code: </b>http://loinc.org 6690-2 Leukocyten</p><p><b>subject: </b>Patient/7168528</p><p><b>effective: </b>2021-11-04T00:00:00+01:00</p><p><b>performer: </b>Practitioner/Responsible</p><p><b>result: </b>3810 /uL</p><p><b>specimen: </b>Specimen/002815333044</p><p><b>referenceRange: </b> // Low: 3720 /uL // High: 10540 /uL // </p></div>"
        },
        "status": "final",
        "code": {
            "coding": [
                {
                    "system": "http://loinc.org",
                    "code": "6690-2"
                }
            ],
            "text": "Leukocyten"
        },
        "subject": {
            "reference": "Patient/7168528"
        },
        "effectiveDateTime": "2021-11-04T00:00:00+01:00",
        "issued": "2021-11-04T13:17:11+01:00",
        "performer": [
            {
                "reference": "Practitioner/Responsible"
            }
        ],
        "valueQuantity": {
            "value": 3810,
            "unit": "/uL",
            "system": "http://unitsofmeasure.org",
            "code": "/uL"
        },
        "specimen": {
            "reference": "Specimen/002815333044"
        },
        "referenceRange": [
            {
                "low": {
                    "value": 3720,
                    "unit": "/uL",
                    "system": "http://unitsofmeasure.org",
                    "code": "/uL"
                },
                "high": {
                    "value": 10540,
                    "unit": "/uL",
                    "system": "http://unitsofmeasure.org",
                    "code": "/uL"
                }
            }
        ]
    }
}
,{
    "fullUrl": "Observation/Observation.1.1.0.0",
    "resource": {
        "resourceType": "Observation",
        "id": "Observation.1.1.0.0",
        "meta": {
            "profile": [
                "https://www.ehealth.fgov.be/standards/fhir/StructureDefinition/be-observation-laboratory"
            ]
        },
        "text": {
            "status": "generated",
            "div": "<div xmlns=\"http://www.w3.org/1999/xhtml\"><p><b>code: </b>Formule</p><p><b>subject: </b>Patient/7168528</p><p><b>effective: </b>2021-11-04T00:00:00+01:00</p><p><b>performer: </b>Practitioner/Responsible</p><p><b>member: </b> // Observation/Observation.1.1.0.1 // Observation/Observation.1.1.0.2 // Observation/Observation.1.1.0.3 // Observation/Observation.1.1.0.4 // Observation/Observation.1.1.0.5 // </p></div>"
        },
        "status": "final",
        "code": {
            "text": "Formule"
        },
        "subject": {
            "reference": "Patient/7168528"
        },
        "effectiveDateTime": "2021-11-04T00:00:00+01:00",
        "performer": [
            {
                "reference": "Practitioner/Responsible"
            }
        ],
        "hasMember": [
            {
                "reference": "Observation/Observation.1.1.0.1"
            },
            {
                "reference": "Observation/Observation.1.1.0.2"
            },
            {
                "reference": "Observation/Observation.1.1.0.3"
            },
            {
                "reference": "Observation/Observation.1.1.0.4"
            },
            {
                "reference": "Observation/Observation.1.1.0.5"
            }
        ]
    }
}
,{
    "fullUrl": "Observation/Observation.1.1.0.1",
    "resource": {
        "resourceType": "Observation",
        "id": "Observation.1.1.0.1",
        "meta": {
            "profile": [
                "https://www.ehealth.fgov.be/standards/fhir/StructureDefinition/be-observation-laboratory"
            ]
        },
        "text": {
            "status": "generated",
            "div": "<div xmlns=\"http://www.w3.org/1999/xhtml\"><p><b>code: </b>http://loinc.org 26511-6 Neutrofiele segmenten</p><p><b>subject: </b>Patient/7168528</p><p><b>effective: </b>2021-11-04T00:00:00+01:00</p><p><b>performer: </b>Practitioner/Responsible</p><p><b>result: </b>47,0 %</p><p><b>specimen: </b>Specimen/002815333044</p><p><b>referenceRange: </b> // Low: 39,2 % // High: 72,9 % // </p></div>"
        },
        "status": "final",
        "code": {
            "coding": [
                {
                    "system": "http://loinc.org",
                    "code": "26511-6"
                }
            ],
            "text": "Neutrofiele segmenten"
        },
        "subject": {
            "reference": "Patient/7168528"
        },
        "effectiveDateTime": "2021-11-04T00:00:00+01:00",
        "issued": "2021-11-04T13:17:29+01:00",
        "performer": [
            {
                "reference": "Practitioner/Responsible"
            }
        ],
        "valueQuantity": {
            "value": 47.0,
            "unit": "%",
            "system": "http://unitsofmeasure.org",
            "code": "%"
        },
        "specimen": {
            "reference": "Specimen/002815333044"
        },
        "referenceRange": [
            {
                "low": {
                    "value": 39.2,
                    "unit": "%",
                    "system": "http://unitsofmeasure.org",
                    "code": "%"
                },
                "high": {
                    "value": 72.9,
                    "unit": "%",
                    "system": "http://unitsofmeasure.org",
                    "code": "%"
                }
            }
        ]
    }
}
,{
    "fullUrl": "Observation/Observation.1.1.0.2",
    "resource": {
        "resourceType": "Observation",
        "id": "Observation.1.1.0.2",
        "meta": {
            "profile": [
                "https://www.ehealth.fgov.be/standards/fhir/StructureDefinition/be-observation-laboratory"
            ]
        },
        "text": {
            "status": "generated",
            "div": "<div xmlns=\"http://www.w3.org/1999/xhtml\"><p><b>code: </b>http://loinc.org 26450-7 Eosinofielen</p><p><b>subject: </b>Patient/7168528</p><p><b>effective: </b>2021-11-04T00:00:00+01:00</p><p><b>performer: </b>Practitioner/Responsible</p><p><b>result: </b>0,0 %</p><p><b>specimen: </b>Specimen/002815333044</p><p><b>referenceRange: </b> // High: 8,4 % // </p></div>"
        },
        "status": "final",
        "code": {
            "coding": [
                {
                    "system": "http://loinc.org",
                    "code": "26450-7"
                }
            ],
            "text": "Eosinofielen"
        },
        "subject": {
            "reference": "Patient/7168528"
        },
        "effectiveDateTime": "2021-11-04T00:00:00+01:00",
        "issued": "2021-11-04T13:17:41+01:00",
        "performer": [
            {
                "reference": "Practitioner/Responsible"
            }
        ],
        "valueQuantity": {
            "value": 0.0,
            "unit": "%",
            "system": "http://unitsofmeasure.org",
            "code": "%"
        },
        "specimen": {
            "reference": "Specimen/002815333044"
        },
        "referenceRange": [
            {
                "high": {
                    "value": 8.4,
                    "unit": "%",
                    "system": "http://unitsofmeasure.org",
                    "code": "%"
                }
            }
        ]
    }
}
,{
    "fullUrl": "Observation/Observation.1.1.0.3",
    "resource": {
        "resourceType": "Observation",
        "id": "Observation.1.1.0.3",
        "meta": {
            "profile": [
                "https://www.ehealth.fgov.be/standards/fhir/StructureDefinition/be-observation-laboratory"
            ]
        },
        "text": {
            "status": "generated",
            "div": "<div xmlns=\"http://www.w3.org/1999/xhtml\"><p><b>code: </b>http://loinc.org 30180-4 Basofielen</p><p><b>subject: </b>Patient/7168528</p><p><b>effective: </b>2021-11-04T00:00:00+01:00</p><p><b>performer: </b>Practitioner/Responsible</p><p><b>result: </b>1,0 %</p><p><b>specimen: </b>Specimen/002815333044</p><p><b>referenceRange: </b> // High: 1,5 % // </p></div>"
        },
        "status": "final",
        "code": {
            "coding": [
                {
                    "system": "http://loinc.org",
                    "code": "30180-4"
                }
            ],
            "text": "Basofielen"
        },
        "subject": {
            "reference": "Patient/7168528"
        },
        "effectiveDateTime": "2021-11-04T00:00:00+01:00",
        "issued": "2021-11-04T13:17:54+01:00",
        "performer": [
            {
                "reference": "Practitioner/Responsible"
            }
        ],
        "valueQuantity": {
            "value": 1.0,
            "unit": "%",
            "system": "http://unitsofmeasure.org",
            "code": "%"
        },
        "specimen": {
            "reference": "Specimen/002815333044"
        },
        "referenceRange": [
            {
                "high": {
                    "value": 1.5,
                    "unit": "%",
                    "system": "http://unitsofmeasure.org",
                    "code": "%"
                }
            }
        ]
    }
}
,{
    "fullUrl": "Observation/Observation.1.1.0.4",
    "resource": {
        "resourceType": "Observation",
        "id": "Observation.1.1.0.4",
        "meta": {
            "profile": [
                "https://www.ehealth.fgov.be/standards/fhir/StructureDefinition/be-observation-laboratory"
            ]
        },
        "text": {
            "status": "generated",
            "div": "<div xmlns=\"http://www.w3.org/1999/xhtml\"><p><b>code: </b>http://loinc.org 26478-8 Lymfocyten</p><p><b>subject: </b>Patient/7168528</p><p><b>effective: </b>2021-11-04T00:00:00+01:00</p><p><b>performer: </b>Practitioner/Responsible</p><p><b>result: </b>34,0 %</p><p><b>specimen: </b>Specimen/002815333044</p><p><b>referenceRange: </b> // Low: 15,7 % // High: 47,0 % // </p></div>"
        },
        "status": "final",
        "code": {
            "coding": [
                {
                    "system": "http://loinc.org",
                    "code": "26478-8"
                }
            ],
            "text": "Lymfocyten"
        },
        "subject": {
            "reference": "Patient/7168528"
        },
        "effectiveDateTime": "2021-11-04T00:00:00+01:00",
        "issued": "2021-11-04T13:17:58+01:00",
        "performer": [
            {
                "reference": "Practitioner/Responsible"
            }
        ],
        "valueQuantity": {
            "value": 34.0,
            "unit": "%",
            "system": "http://unitsofmeasure.org",
            "code": "%"
        },
        "specimen": {
            "reference": "Specimen/002815333044"
        },
        "referenceRange": [
            {
                "low": {
                    "value": 15.7,
                    "unit": "%",
                    "system": "http://unitsofmeasure.org",
                    "code": "%"
                },
                "high": {
                    "value": 47.0,
                    "unit": "%",
                    "system": "http://unitsofmeasure.org",
                    "code": "%"
                }
            }
        ]
    }
}
,{
    "fullUrl": "Observation/Observation.1.1.0.5",
    "resource": {
        "resourceType": "Observation",
        "id": "Observation.1.1.0.5",
        "meta": {
            "profile": [
                "https://www.ehealth.fgov.be/standards/fhir/StructureDefinition/be-observation-laboratory"
            ]
        },
        "text": {
            "status": "generated",
            "div": "<div xmlns=\"http://www.w3.org/1999/xhtml\"><p><b>code: </b>http://loinc.org 26485-3 Monocyten</p><p><b>subject: </b>Patient/7168528</p><p><b>effective: </b>2021-11-04T00:00:00+01:00</p><p><b>performer: </b>Practitioner/Responsible</p><p><b>result: </b>18,0 %</p><p><b>specimen: </b>Specimen/002815333044</p><p><b>interpretation: </b>H</p><p><b>referenceRange: </b> // Low: 5,7 % // High: 13,7 % // </p></div>"
        },
        "status": "final",
        "code": {
            "coding": [
                {
                    "system": "http://loinc.org",
                    "code": "26485-3"
                }
            ],
            "text": "Monocyten"
        },
        "subject": {
            "reference": "Patient/7168528"
        },
        "effectiveDateTime": "2021-11-04T00:00:00+01:00",
        "issued": "2021-11-04T13:18:02+01:00",
        "performer": [
            {
                "reference": "Practitioner/Responsible"
            }
        ],
        "valueQuantity": {
            "value": 18.0,
            "unit": "%",
            "system": "http://unitsofmeasure.org",
            "code": "%"
        },
        "interpretation": [
            {
                "coding": [
                    {
                        "system": "http://terminology.hl7.org/CodeSystem/v3-ObservationInterpretation",
                        "code": "H"
                    }
                ]
            }
        ],
        "specimen": {
            "reference": "Specimen/002815333044"
        },
        "referenceRange": [
            {
                "low": {
                    "value": 5.7,
                    "unit": "%",
                    "system": "http://unitsofmeasure.org",
                    "code": "%"
                },
                "high": {
                    "value": 13.7,
                    "unit": "%",
                    "system": "http://unitsofmeasure.org",
                    "code": "%"
                }
            }
        ]
    }
}
,{
    "fullUrl": "Observation/Observation.1.2.0.0",
    "resource": {
        "resourceType": "Observation",
        "id": "Observation.1.2.0.0",
        "meta": {
            "profile": [
                "https://www.ehealth.fgov.be/standards/fhir/StructureDefinition/be-observation-laboratory"
            ]
        },
        "text": {
            "status": "generated",
            "div": "<div xmlns=\"http://www.w3.org/1999/xhtml\"><p><b>code: </b>Formule (absoluut)</p><p><b>subject: </b>Patient/7168528</p><p><b>effective: </b>2021-11-04T00:00:00+01:00</p><p><b>performer: </b>Practitioner/Responsible</p><p><b>member: </b> // Observation/Observation.1.2.0.1 // Observation/Observation.1.2.0.2 // Observation/Observation.1.2.0.3 // Observation/Observation.1.2.0.4 // Observation/Observation.1.2.0.5 // </p></div>"
        },
        "status": "final",
        "code": {
            "text": "Formule (absoluut)"
        },
        "subject": {
            "reference": "Patient/7168528"
        },
        "effectiveDateTime": "2021-11-04T00:00:00+01:00",
        "performer": [
            {
                "reference": "Practitioner/Responsible"
            }
        ],
        "hasMember": [
            {
                "reference": "Observation/Observation.1.2.0.1"
            },
            {
                "reference": "Observation/Observation.1.2.0.2"
            },
            {
                "reference": "Observation/Observation.1.2.0.3"
            },
            {
                "reference": "Observation/Observation.1.2.0.4"
            },
            {
                "reference": "Observation/Observation.1.2.0.5"
            }
        ]
    }
}
,{
    "fullUrl": "Observation/Observation.1.2.0.1",
    "resource": {
        "resourceType": "Observation",
        "id": "Observation.1.2.0.1",
        "meta": {
            "profile": [
                "https://www.ehealth.fgov.be/standards/fhir/StructureDefinition/be-observation-laboratory"
            ]
        },
        "text": {
            "status": "generated",
            "div": "<div xmlns=\"http://www.w3.org/1999/xhtml\"><p><b>code: </b>http://loinc.org 26499-4 Neutrofiele segmenten</p><p><b>subject: </b>Patient/7168528</p><p><b>effective: </b>2021-11-04T00:00:00+01:00</p><p><b>performer: </b>Practitioner/Responsible</p><p><b>result: </b>1791 /uL</p><p><b>specimen: </b>Specimen/002815333044</p><p><b>referenceRange: </b> // Low: 1760 /uL // High: 7031 /uL // </p></div>"
        },
        "status": "final",
        "code": {
            "coding": [
                {
                    "system": "http://loinc.org",
                    "code": "26499-4"
                }
            ],
            "text": "Neutrofiele segmenten"
        },
        "subject": {
            "reference": "Patient/7168528"
        },
        "effectiveDateTime": "2021-11-04T00:00:00+01:00",
        "issued": "2021-11-04T13:17:29+01:00",
        "performer": [
            {
                "reference": "Practitioner/Responsible"
            }
        ],
        "valueQuantity": {
            "value": 1791,
            "unit": "/uL",
            "system": "http://unitsofmeasure.org",
            "code": "/uL"
        },
        "specimen": {
            "reference": "Specimen/002815333044"
        },
        "referenceRange": [
            {
                "low": {
                    "value": 1760,
                    "unit": "/uL",
                    "system": "http://unitsofmeasure.org",
                    "code": "/uL"
                },
                "high": {
                    "value": 7031,
                    "unit": "/uL",
                    "system": "http://unitsofmeasure.org",
                    "code": "/uL"
                }
            }
        ]
    }
}
,{
    "fullUrl": "Observation/Observation.1.2.0.2",
    "resource": {
        "resourceType": "Observation",
        "id": "Observation.1.2.0.2",
        "meta": {
            "profile": [
                "https://www.ehealth.fgov.be/standards/fhir/StructureDefinition/be-observation-laboratory"
            ]
        },
        "text": {
            "status": "generated",
            "div": "<div xmlns=\"http://www.w3.org/1999/xhtml\"><p><b>code: </b>http://loinc.org 26449-9 Eosinofielen</p><p><b>subject: </b>Patient/7168528</p><p><b>effective: </b>2021-11-04T00:00:00+01:00</p><p><b>performer: </b>Practitioner/Responsible</p><p><b>result: </b>0 /uL</p><p><b>specimen: </b>Specimen/002815333044</p><p><b>referenceRange: </b> // High: 559 /uL // </p></div>"
        },
        "status": "final",
        "code": {
            "coding": [
                {
                    "system": "http://loinc.org",
                    "code": "26449-9"
                }
            ],
            "text": "Eosinofielen"
        },
        "subject": {
            "reference": "Patient/7168528"
        },
        "effectiveDateTime": "2021-11-04T00:00:00+01:00",
        "issued": "2021-11-04T13:17:41+01:00",
        "performer": [
            {
                "reference": "Practitioner/Responsible"
            }
        ],
        "valueQuantity": {
            "value": 0,
            "unit": "/uL",
            "system": "http://unitsofmeasure.org",
            "code": "/uL"
        },
        "specimen": {
            "reference": "Specimen/002815333044"
        },
        "referenceRange": [
            {
                "high": {
                    "value": 559,
                    "unit": "/uL",
                    "system": "http://unitsofmeasure.org",
                    "code": "/uL"
                }
            }
        ]
    }
}
,{
    "fullUrl": "Observation/Observation.1.2.0.3",
    "resource": {
        "resourceType": "Observation",
        "id": "Observation.1.2.0.3",
        "meta": {
            "profile": [
                "https://www.ehealth.fgov.be/standards/fhir/StructureDefinition/be-observation-laboratory"
            ]
        },
        "text": {
            "status": "generated",
            "div": "<div xmlns=\"http://www.w3.org/1999/xhtml\"><p><b>code: </b>http://loinc.org 26444-0 Basofielen</p><p><b>subject: </b>Patient/7168528</p><p><b>effective: </b>2021-11-04T00:00:00+01:00</p><p><b>performer: </b>Practitioner/Responsible</p><p><b>result: </b>38 /uL</p><p><b>specimen: </b>Specimen/002815333044</p><p><b>referenceRange: </b> // High: 102 /uL // </p></div>"
        },
        "status": "final",
        "code": {
            "coding": [
                {
                    "system": "http://loinc.org",
                    "code": "26444-0"
                }
            ],
            "text": "Basofielen"
        },
        "subject": {
            "reference": "Patient/7168528"
        },
        "effectiveDateTime": "2021-11-04T00:00:00+01:00",
        "issued": "2021-11-04T13:17:54+01:00",
        "performer": [
            {
                "reference": "Practitioner/Responsible"
            }
        ],
        "valueQuantity": {
            "value": 38,
            "unit": "/uL",
            "system": "http://unitsofmeasure.org",
            "code": "/uL"
        },
        "specimen": {
            "reference": "Specimen/002815333044"
        },
        "referenceRange": [
            {
                "high": {
                    "value": 102,
                    "unit": "/uL",
                    "system": "http://unitsofmeasure.org",
                    "code": "/uL"
                }
            }
        ]
    }
}
,{
    "fullUrl": "Observation/Observation.1.2.0.4",
    "resource": {
        "resourceType": "Observation",
        "id": "Observation.1.2.0.4",
        "meta": {
            "profile": [
                "https://www.ehealth.fgov.be/standards/fhir/StructureDefinition/be-observation-laboratory"
            ]
        },
        "text": {
            "status": "generated",
            "div": "<div xmlns=\"http://www.w3.org/1999/xhtml\"><p><b>code: </b>http://loinc.org 26474-7 Lymfocyten</p><p><b>subject: </b>Patient/7168528</p><p><b>effective: </b>2021-11-04T00:00:00+01:00</p><p><b>performer: </b>Practitioner/Responsible</p><p><b>result: </b>1295 /uL</p><p><b>specimen: </b>Specimen/002815333044</p><p><b>referenceRange: </b> // Low: 964 /uL // High: 3440 /uL // </p></div>"
        },
        "status": "final",
        "code": {
            "coding": [
                {
                    "system": "http://loinc.org",
                    "code": "26474-7"
                }
            ],
            "text": "Lymfocyten"
        },
        "subject": {
            "reference": "Patient/7168528"
        },
        "effectiveDateTime": "2021-11-04T00:00:00+01:00",
        "issued": "2021-11-04T13:17:58+01:00",
        "performer": [
            {
                "reference": "Practitioner/Responsible"
            }
        ],
        "valueQuantity": {
            "value": 1295,
            "unit": "/uL",
            "system": "http://unitsofmeasure.org",
            "code": "/uL"
        },
        "specimen": {
            "reference": "Specimen/002815333044"
        },
        "referenceRange": [
            {
                "low": {
                    "value": 964,
                    "unit": "/uL",
                    "system": "http://unitsofmeasure.org",
                    "code": "/uL"
                },
                "high": {
                    "value": 3440,
                    "unit": "/uL",
                    "system": "http://unitsofmeasure.org",
                    "code": "/uL"
                }
            }
        ]
    }
}
,{
    "fullUrl": "Observation/Observation.1.2.0.5",
    "resource": {
        "resourceType": "Observation",
        "id": "Observation.1.2.0.5",
        "meta": {
            "profile": [
                "https://www.ehealth.fgov.be/standards/fhir/StructureDefinition/be-observation-laboratory"
            ]
        },
        "text": {
            "status": "generated",
            "div": "<div xmlns=\"http://www.w3.org/1999/xhtml\"><p><b>code: </b>http://loinc.org 26484-6 Monocyten</p><p><b>subject: </b>Patient/7168528</p><p><b>effective: </b>2021-11-04T00:00:00+01:00</p><p><b>performer: </b>Practitioner/Responsible</p><p><b>result: </b>686 /uL</p><p><b>specimen: </b>Specimen/002815333044</p><p><b>referenceRange: </b> // Low: 320 /uL // High: 979 /uL // </p></div>"
        },
        "status": "final",
        "code": {
            "coding": [
                {
                    "system": "http://loinc.org",
                    "code": "26484-6"
                }
            ],
            "text": "Monocyten"
        },
        "subject": {
            "reference": "Patient/7168528"
        },
        "effectiveDateTime": "2021-11-04T00:00:00+01:00",
        "issued": "2021-11-04T13:18:02+01:00",
        "performer": [
            {
                "reference": "Practitioner/Responsible"
            }
        ],
        "valueQuantity": {
            "value": 686,
            "unit": "/uL",
            "system": "http://unitsofmeasure.org",
            "code": "/uL"
        },
        "specimen": {
            "reference": "Specimen/002815333044"
        },
        "referenceRange": [
            {
                "low": {
                    "value": 320,
                    "unit": "/uL",
                    "system": "http://unitsofmeasure.org",
                    "code": "/uL"
                },
                "high": {
                    "value": 979,
                    "unit": "/uL",
                    "system": "http://unitsofmeasure.org",
                    "code": "/uL"
                }
            }
        ]
    }
}
,{
    "fullUrl": "Observation/Observation.1.3.0.1",
    "resource": {
        "resourceType": "Observation",
        "id": "Observation.1.3.0.1",
        "meta": {
            "profile": [
                "https://www.ehealth.fgov.be/standards/fhir/StructureDefinition/be-observation-laboratory"
            ]
        },
        "text": {
            "status": "generated",
            "div": "<div xmlns=\"http://www.w3.org/1999/xhtml\"><p><b>code: </b>http://loinc.org 777-3 Trombocyten</p><p><b>subject: </b>Patient/7168528</p><p><b>effective: </b>2021-11-04T00:00:00+01:00</p><p><b>performer: </b>Practitioner/Responsible</p><p><b>result: </b>151 10*3/uL</p><p><b>specimen: </b>Specimen/002815333044</p><p><b>referenceRange: </b> // Low: 148 10*3/uL // High: 362 10*3/uL // </p></div>"
        },
        "status": "final",
        "code": {
            "coding": [
                {
                    "system": "http://loinc.org",
                    "code": "777-3"
                }
            ],
            "text": "Trombocyten"
        },
        "subject": {
            "reference": "Patient/7168528"
        },
        "effectiveDateTime": "2021-11-04T00:00:00+01:00",
        "issued": "2021-11-04T13:18:10+01:00",
        "performer": [
            {
                "reference": "Practitioner/Responsible"
            }
        ],
        "valueQuantity": {
            "value": 151,
            "unit": "10*3/uL",
            "system": "http://unitsofmeasure.org",
            "code": "10*3/uL"
        },
        "specimen": {
            "reference": "Specimen/002815333044"
        },
        "referenceRange": [
            {
                "low": {
                    "value": 148,
                    "unit": "10*3/uL",
                    "system": "http://unitsofmeasure.org",
                    "code": "10*3/uL"
                },
                "high": {
                    "value": 362,
                    "unit": "10*3/uL",
                    "system": "http://unitsofmeasure.org",
                    "code": "10*3/uL"
                }
            }
        ]
    }
}
,{
    "fullUrl": "Observation/Observation.2.0.0.0",
    "resource": {
        "resourceType": "Observation",
        "id": "Observation.2.0.0.0",
        "meta": {
            "profile": [
                "https://www.ehealth.fgov.be/standards/fhir/StructureDefinition/be-observation-laboratory"
            ]
        },
        "text": {
            "status": "generated",
            "div": "<div xmlns=\"http://www.w3.org/1999/xhtml\"><p><b>code: </b>INFLAMMATIE</p><p><b>subject: </b>Patient/7168528</p><p><b>effective: </b>2021-11-04T00:00:00+01:00</p><p><b>performer: </b>Practitioner/Responsible</p><p><b>member: </b> // Observation/Observation.2.0.0.1 // </p></div>"
        },
        "status": "final",
        "code": {
            "text": "INFLAMMATIE"
        },
        "subject": {
            "reference": "Patient/7168528"
        },
        "effectiveDateTime": "2021-11-04T00:00:00+01:00",
        "performer": [
            {
                "reference": "Practitioner/Responsible"
            }
        ],
        "hasMember": [
            {
                "reference": "Observation/Observation.2.0.0.1"
            }
        ]
    }
}
,{
    "fullUrl": "Observation/Observation.2.0.0.1",
    "resource": {
        "resourceType": "Observation",
        "id": "Observation.2.0.0.1",
        "meta": {
            "profile": [
                "https://www.ehealth.fgov.be/standards/fhir/StructureDefinition/be-observation-laboratory"
            ]
        },
        "text": {
            "status": "generated",
            "div": "<div xmlns=\"http://www.w3.org/1999/xhtml\"><p><b>code: </b>http://loinc.org 1988-5 CRP</p><p><b>subject: </b>Patient/7168528</p><p><b>effective: </b>2021-11-04T00:00:00+01:00</p><p><b>performer: </b>Practitioner/Responsible</p><p><b>result: </b>63,0 mg/L</p><p><b>specimen: </b>Specimen/001815333044</p><p><b>interpretation: </b>H</p><p><b>referenceRange: </b> // High: 5,0 mg/L // </p></div>"
        },
        "status": "final",
        "code": {
            "coding": [
                {
                    "system": "http://loinc.org",
                    "code": "1988-5"
                }
            ],
            "text": "CRP"
        },
        "subject": {
            "reference": "Patient/7168528"
        },
        "effectiveDateTime": "2021-11-04T00:00:00+01:00",
        "issued": "2021-11-04T13:18:15+01:00",
        "performer": [
            {
                "reference": "Practitioner/Responsible"
            }
        ],
        "valueQuantity": {
            "value": 63.0,
            "unit": "mg/L",
            "system": "http://unitsofmeasure.org",
            "code": "mg/L"
        },
        "interpretation": [
            {
                "coding": [
                    {
                        "system": "http://terminology.hl7.org/CodeSystem/v3-ObservationInterpretation",
                        "code": "H"
                    }
                ]
            }
        ],
        "specimen": {
            "reference": "Specimen/001815333044"
        },
        "referenceRange": [
            {
                "high": {
                    "value": 5.0,
                    "unit": "mg/L",
                    "system": "http://unitsofmeasure.org",
                    "code": "mg/L"
                }
            }
        ]
    }
}
,{
    "fullUrl": "Observation/Observation.3.0.0.0",
    "resource": {
        "resourceType": "Observation",
        "id": "Observation.3.0.0.0",
        "meta": {
            "profile": [
                "https://www.ehealth.fgov.be/standards/fhir/StructureDefinition/be-observation-laboratory"
            ]
        },
        "text": {
            "status": "generated",
            "div": "<div xmlns=\"http://www.w3.org/1999/xhtml\"><p><b>code: </b>SCHILDKLIER</p><p><b>subject: </b>Patient/7168528</p><p><b>effective: </b>2021-11-04T00:00:00+01:00</p><p><b>performer: </b>Practitioner/Responsible</p><p><b>member: </b> // Observation/Observation.3.0.0.1 // </p></div>"
        },
        "status": "final",
        "code": {
            "text": "SCHILDKLIER"
        },
        "subject": {
            "reference": "Patient/7168528"
        },
        "effectiveDateTime": "2021-11-04T00:00:00+01:00",
        "performer": [
            {
                "reference": "Practitioner/Responsible"
            }
        ],
        "hasMember": [
            {
                "reference": "Observation/Observation.3.0.0.1"
            }
        ]
    }
}
,{
    "fullUrl": "Observation/Observation.3.0.0.1",
    "resource": {
        "resourceType": "Observation",
        "id": "Observation.3.0.0.1",
        "meta": {
            "profile": [
                "https://www.ehealth.fgov.be/standards/fhir/StructureDefinition/be-observation-laboratory"
            ]
        },
        "text": {
            "status": "generated",
            "div": "<div xmlns=\"http://www.w3.org/1999/xhtml\"><p><b>code: </b>http://loinc.org 3016-3 TSH</p><p><b>subject: </b>Patient/7168528</p><p><b>effective: </b>2021-11-04T00:00:00+01:00</p><p><b>performer: </b>Practitioner/Responsible</p><p><b>result: </b>2,50 mU/L</p><p><b>specimen: </b>Specimen/001815333044</p><p><b>referenceRange: </b> // Low: 0,27 mU/L // High: 4,20 mU/L // </p></div>"
        },
        "status": "final",
        "code": {
            "coding": [
                {
                    "system": "http://loinc.org",
                    "code": "3016-3"
                }
            ],
            "text": "TSH"
        },
        "subject": {
            "reference": "Patient/7168528"
        },
        "effectiveDateTime": "2021-11-04T00:00:00+01:00",
        "issued": "2021-11-04T13:18:22+01:00",
        "performer": [
            {
                "reference": "Practitioner/Responsible"
            }
        ],
        "valueQuantity": {
            "value": 2.50,
            "unit": "mU/L",
            "system": "http://unitsofmeasure.org",
            "code": "mU/L"
        },
        "specimen": {
            "reference": "Specimen/001815333044"
        },
        "referenceRange": [
            {
                "low": {
                    "value": 0.27,
                    "unit": "mU/L",
                    "system": "http://unitsofmeasure.org",
                    "code": "mU/L"
                },
                "high": {
                    "value": 4.20,
                    "unit": "mU/L",
                    "system": "http://unitsofmeasure.org",
                    "code": "mU/L"
                }
            }
        ]
    }
}
,{
    "fullUrl": "DiagnosticReport/815333044",
    "resource": {
        "resourceType": "DiagnosticReport",
        "id": "815333044",
        "meta": {
            "versionId": "2",
            "profile": [
                "https://www.ehealth.fgov.be/standards/fhir/StructureDefinition/be-laboratory-report"
            ]
        },
        "language": "nl",
        "text": {
            "status": "generated",
            "div": "<div xmlns=\"http://www.w3.org/1999/xhtml\" xml:lang=\"nl\" lang=\"nl\"><p><b>id: </b>815333044</p><p><b>basedOn: </b>ServiceRequest/815333044</p><p><b>status: </b>final</p><p><b>category: </b>http://terminology.hl7.org/CodeSystem/v2-0074 LAB Laboratory</p><p><b>code: </b>http://loinc.org 11502-2 Laboratory report</p><p><b>subject: </b>Patient/7168528</p><p><b>effective: </b>2021-11-04T00:00:00+01:00</p><p><b>issued: </b>2021-12-20T14:43:27+01:00</p><p><b>performer: </b>Organization/81365677998</p><p><b>resultsInterpreter: </b>Practitioner/Responsible</p><p><b>specimen: </b> // Specimen/002815333044 // Specimen/001815333044 // </p><p><b>result: </b> // Observation/Observation.1.0.0.0 // Observation/Observation.2.0.0.0 // Observation/Observation.3.0.0.0 // </p></div>"
        },
        "identifier": [
            {
                "system": "https://www.ehealth.fgov.be/lab-report/diagnostic-report-id",
                "value": "81365677998.815333044"
            }
        ],
        "basedOn": [
            {
                "reference": "ServiceRequest/815333044"
            }
        ],
        "status": "final",
        "category": [
            {
                "coding": [
                    {
                        "system": "http://terminology.hl7.org/CodeSystem/v2-0074",
                        "code": "LAB",
                        "display": "Laboratory"
                    }
                ]
            }
        ],
        "code": {
            "coding": [
                {
                    "system": "http://loinc.org",
                    "code": "11502-2",
                    "display": "Laboratory report"
                }
            ]
        },
        "subject": {
            "reference": "Patient/7168528"
        },
        "effectiveDateTime": "2021-11-04T00:00:00+01:00",
        "issued": "2021-12-20T14:43:27+01:00",
        "performer": [
            {
                "reference": "Organization/81365677998"
            }
        ],
        "resultsInterpreter": [
            {
                "reference": "Practitioner/Responsible"
            }
        ],
        "specimen": [
            {
                "reference": "Specimen/002815333044"
            },
            {
                "reference": "Specimen/001815333044"
            }
        ],
        "result": [
            {
                "reference": "Observation/Observation.1.0.0.0"
            },
            {
                "reference": "Observation/Observation.2.0.0.0"
            },
            {
                "reference": "Observation/Observation.3.0.0.0"
            }
        ],
        "presentedForm": [
            {
                "contentType": "application/pdf",
                "data": "",
                "title": "PDF protocol"
            }
        ]
    }
}
,{
    "fullUrl": "Organization/81365677998",
    "resource": {
        "resourceType": "Organization",
        "id": "81365677998",
        "meta": {
            "profile": [
                "https://www.ehealth.fgov.be/standards/fhir/StructureDefinition/be-organization"
            ]
        },
        "text": {
            "status": "generated",
            "div": "<div xmlns=\"http://www.w3.org/1999/xhtml\"><p><b>identifier: </b>81365677998</p><p><b>name: </b>CENTRUM VOOR MEDISCHE ANALYSE</p><p><b>contact: </b>014/28.50.00</p><p><b>address: </b>Oud-Strijderslaan 199 2200 Herentals BE</p></div>"
        },
        "identifier": [
            {
                "use": "official",
                "type": {
                    "coding": [
                        {
                            "system": "http://terminology.hl7.org/CodeSystem/v2-0203",
                            "code": "MD",
                            "display": "Medical License number"
                        }
                    ]
                },
                "system": "https://www.ehealth.fgov.be/standards/fhir/NamingSystem/nihdi",
                "value": "81365677998"
            },
            {
                "use": "official",
                "system": "https://economie.fgov.be/belac",
                "value": "007-MED"
            }
        ],
        "active": true,
        "type": [
            {
                "coding": [
                    {
                        "system": "https://www.ehealth.fgov.be/standards/fhir/CodeSystem/cd-hcparty",
                        "code": "orglaboratory"
                    }
                ]
            }
        ],
        "name": "CENTRUM VOOR MEDISCHE ANALYSE",
        "telecom": [
            {
                "system": "phone",
                "value": "014/28.50.00",
                "use": "work"
            },
            {
                "system": "fax",
                "value": "014/22.56.08",
                "use": "work"
            },
            {
                "system": "email",
                "value": "info@cma.be",
                "use": "work"
            },
            {
                "system": "url",
                "value": "http://www.cma.be",
                "use": "work"
            }
        ],
        "address": [
            {
                "use": "work",
                "type": "both",
                "line": [
                    "Oud-Strijderslaan 199"
                ],
                "city": "Herentals",
                "postalCode": "2200",
                "country": "BE"
            }
        ]
    }
}
,{
    "fullUrl": "Practitioner/69",
    "resource": {
        "resourceType": "Practitioner",
        "id": "69",
        "meta": {
            "profile": [
                "https://www.ehealth.fgov.be/standards/fhir/StructureDefinition/be-practitioner"
            ]
        },
        "text": {
            "status": "generated",
            "div": "<div xmlns=\"http://www.w3.org/1999/xhtml\"><p><b>identifier: </b>10000007999</p><p><b>name: </b>Cma - Herentals Fhir</p><p><b>contact: </b>info@cma.be</p><p><b>address: </b>Oud-Strijderslaan 199 2200 Herentals BE</p></div>"
        },
        "identifier": [
            {
                "use": "official",
                "system": "https://www.ehealth.fgov.be/standards/fhir/NamingSystem/nihdi",
                "value": "10000007999"
            }
        ],
        "name": [
            {
                "use": "official",
                "family": "Cma - Herentals",
                "given": [
                    "Fhir"
                ],
                "prefix": [
                    "Dr."
                ]
            }
        ],
        "telecom": [
            {
                "system": "email",
                "value": "info@cma.be",
                "use": "work"
            },
            {
                "system": "fax",
                "value": "(+32)14/225608",
                "use": "work"
            },
            {
                "system": "phone",
                "value": "(+32)14/285000",
                "use": "work"
            }
        ],
        "address": [
            {
                "use": "work",
                "type": "both",
                "line": [
                    "Oud-Strijderslaan 199"
                ],
                "city": "Herentals",
                "postalCode": "2200",
                "country": "BE"
            }
        ],
        "gender": "unknown"
    }
}
,{
    "fullUrl": "Practitioner/Responsible",
    "resource": {
        "resourceType": "Practitioner",
        "id": "Responsible",
        "meta": {
            "profile": [
                "https://www.ehealth.fgov.be/standards/fhir/StructureDefinition/be-practitioner"
            ]
        },
        "text": {
            "status": "generated",
            "div": "<div xmlns=\"http://www.w3.org/1999/xhtml\"><p><b>identifier: </b>68071432800</p><p><b>name: </b>Engelen Frans</p><p><b>contact: </b>014/28.50.00</p><p><b>address: </b>Oud-Strijderslaan 199 2200 Herentals BE</p></div>"
        },
        "identifier": [
            {
                "use": "official",
                "system": "https://www.ehealth.fgov.be/standards/fhir/NamingSystem/nihdi",
                "value": "68071432800"
            }
        ],
        "name": [
            {
                "use": "official",
                "family": "Engelen",
                "given": [
                    "Frans"
                ]
            }
        ],
        "telecom": [
            {
                "system": "phone",
                "value": "014/28.50.00",
                "use": "work"
            }
        ],
        "address": [
            {
                "use": "work",
                "type": "both",
                "line": [
                    "Oud-Strijderslaan 199"
                ],
                "city": "Herentals",
                "postalCode": "2200",
                "country": "BE"
            }
        ],
        "gender": "unknown"
    }
}
,{
    "fullUrl": "Patient/7168528",
    "resource": {
        "resourceType": "Patient",
        "id": "7168528",
        "meta": {
            "profile": [
                "https://www.ehealth.fgov.be/standards/fhir/StructureDefinition/be-patient"
            ]
        },
        "text": {
            "status": "generated",
            "div": "<div xmlns=\"http://www.w3.org/1999/xhtml\"><p><b>identifier: </b>40010199714</p><p><b>name: </b>Lastname Firstname Old</p><p><b>gender: </b>male</p><p><b>birthDate: </b>1940-01-01</p><p><b>address: </b>Oud-Strijderslaan 199 2200 Herentals BE</p></div>"
        },
        "identifier": [
            {
                "use": "official",
                "system": "https://www.ehealth.fgov.be/standards/fhir/NamingSystem/ssin",
                "value": "40010199714"
            }
        ],
        "active": true,
        "name": [
            {
                "use": "official",
                "family": "Lastname",
                "given": [
                    "Firstname Old"
                ]
            }
        ],
        "address": [
            {
                "use": "home",
                "type": "both",
                "line": [
                    "Oud-Strijderslaan 199"
                ],
                "city": "Herentals",
                "postalCode": "2200",
                "country": "BE"
            }
        ],
        "gender": "male",
        "birthDate": "1940-01-01"
    }
}
,{
    "fullUrl": "ServiceRequest/815333044",
    "resource": {
        "resourceType": "ServiceRequest",
        "id": "815333044",
        "text": {
            "status": "generated",
            "div": "<div xmlns=\"http://www.w3.org/1999/xhtml\"><p><b>id: </b>815333044</p><p><b>intent: </b>order</p><p><b>status: </b>completed</p><p><b>category: </b>http://snomed.info/sct 108252007 Laboratory procedure</p><p><b>subject: </b>Patient/7168528</p><p><b>requester: </b>Practitioner/69</p><p><b>authoredOn: </b>2021-11-04T13:15:00+01:00</p></div>"
        },
        "identifier": [
            {
                "system": "http://www.macsys.be/hl7/ServiceRequest",
                "value": "815333044"
            }
        ],
        "status": "completed",
        "intent": "order",
        "category": [
            {
                "coding": [
                    {
                        "system": "http://snomed.info/sct",
                        "code": "108252007",
                        "display": "Laboratory procedure"
                    }
                ]
            }
        ],
        "subject": {
            "reference": "Patient/7168528"
        },
        "priority": "routine",
        "authoredOn": "2021-11-04T13:15:00+01:00",
        "requester": {
            "reference": "Practitioner/69"
        }
    }
}
]}