{
    "resourceType": "Bundle",
    "type": "document",
    "timestamp": "2021-12-21T11:01:16Z",
    "identifier": {
        "system": "https://www.ehealth.fgov.be/lab-report/bundle-id",
        "value": "81365677998.815333055.4"
    }
,             "entry":[{
    "fullUrl": "Composition/815333055",
    "resource": {
        "resourceType": "Composition",
        "id": "815333055",
        "meta": {
            "profile": [
                "https://www.ehealth.fgov.be/standards/fhir/lab/StructureDefinition/be-laboratory-report-composition"
            ]
        },
        "text": {
            "status": "generated",
            "div": "<div xmlns=\"http://www.w3.org/1999/xhtml\"><p><b>id: </b>815333055</p><p><b>status: </b>final</p><p><b>type: </b>http://loinc.org 11502-2 Laboratory report</p><p><b>date: </b>2021-12-21T11:01:16+01:00</p><p><b>author: </b>Practitioner/Responsible</p><p><b>title: </b>Laboratory Report</p></div>"
        },
        "identifier": {
            "system": "http://www.macsys.be/hl7/Composition",
            "value": "815333055"
        },
        "status": "final",
        "type": {
            "coding": [
                {
                    "system": "http://loinc.org",
                    "code": "11502-2"
                }
            ],
            "text": "Laboratory report"
        },
        "subject": {
            "reference": "Patient/7167869"
        },
        "date": "2021-12-21T11:01:16+01:00",
        "author": [
            {
                "reference": "Practitioner/Responsible"
            }
        ],
        "title": "Laboratory Report",
        "section": [
            {
                "entry": [
                    {
                        "reference": "DiagnosticReport/815333055"
                    }
                ]
            }
        ]
    }
}
,{
    "fullUrl": "Specimen/001815333055",
    "resource": {
        "resourceType": "Specimen",
        "id": "001815333055",
        "meta": {
            "profile": [
                "https://www.ehealth.fgov.be/standards/fhir/lab/StructureDefinition/be-specimen-laboratory"
            ]
        },
        "text": {
            "status": "generated",
            "div": "<div xmlns=\"http://www.w3.org/1999/xhtml\"><p><b>id: </b>001815333055</p><p><b>status: </b>available</p><p><b>type: </b>http://terminology.hl7.org/CodeSystem/v2-0487 SER Serum Serum</p><p><b>receivedTime: </b>2021-12-17T11:47:19+01:00</p><p><b>collector: </b>Practitioner/69</p></div>"
        },
        "identifier": [
            {
                "system": "http://www.macsys.be/hl7/Specimen",
                "value": "001815333055"
            }
        ],
        "status": "available",
        "type": {
            "coding": [
                {
                    "system": "http://terminology.hl7.org/CodeSystem/v2-0487",
                    "code": "SER",
                    "display": "Serum"
                }
            ],
            "text": "Serum"
        },
        "subject": {
            "reference": "Patient/7167869"
        },
        "receivedTime": "2021-12-17T11:47:19+01:00",
        "collection": {
            "collectedDateTime": "2021-12-17T00:00:00+01:00",
            "collector": {
                "reference": "Practitioner/69"
            }
        }
    }
}
,{
    "fullUrl": "Specimen/002815333055",
    "resource": {
        "resourceType": "Specimen",
        "id": "002815333055",
        "meta": {
            "profile": [
                "https://www.ehealth.fgov.be/standards/fhir/lab/StructureDefinition/be-specimen-laboratory"
            ]
        },
        "text": {
            "status": "generated",
            "div": "<div xmlns=\"http://www.w3.org/1999/xhtml\"><p><b>id: </b>002815333055</p><p><b>status: </b>available</p><p><b>type: </b>http://terminology.hl7.org/CodeSystem/v2-0487 BLDV Blood venous EDTA-volbloed</p><p><b>receivedTime: </b>2021-12-17T11:47:19+01:00</p><p><b>collector: </b>Practitioner/69</p></div>"
        },
        "identifier": [
            {
                "system": "http://www.macsys.be/hl7/Specimen",
                "value": "002815333055"
            }
        ],
        "status": "available",
        "type": {
            "coding": [
                {
                    "system": "http://terminology.hl7.org/CodeSystem/v2-0487",
                    "code": "BLDV",
                    "display": "Blood venous"
                }
            ],
            "text": "EDTA-volbloed"
        },
        "subject": {
            "reference": "Patient/7167869"
        },
        "receivedTime": "2021-12-17T11:47:19+01:00",
        "collection": {
            "collectedDateTime": "2021-12-17T00:00:00+01:00",
            "collector": {
                "reference": "Practitioner/69"
            }
        }
    }
}
,{
    "fullUrl": "Observation/Observation.1.0.0.0",
    "resource": {
        "resourceType": "Observation",
        "id": "Observation.1.0.0.0",
        "meta": {
            "profile": [
                "https://www.ehealth.fgov.be/standards/fhir/lab/StructureDefinition/be-observation-laboratory"
            ]
        },
        "text": {
            "status": "generated",
            "div": "<div xmlns=\"http://www.w3.org/1999/xhtml\"><p><b>code: </b>NIERFUNCTIE</p><p><b>subject: </b>Patient/7167869</p><p><b>effective: </b>2021-12-17T00:00:00+01:00</p><p><b>performer: </b>Practitioner/Responsible</p><p><b>member: </b> // Observation/Observation.1.0.0.1 // Observation/Observation.1.0.0.2 // Observation/Observation.1.0.0.3 // </p></div>"
        },
        "status": "final",
        "code": {
            "text": "NIERFUNCTIE"
        },
        "subject": {
            "reference": "Patient/7167869"
        },
        "effectiveDateTime": "2021-12-17T00:00:00+01:00",
        "performer": [
            {
                "reference": "Practitioner/Responsible"
            }
        ],
        "hasMember": [
            {
                "reference": "Observation/Observation.1.0.0.1"
            },
            {
                "reference": "Observation/Observation.1.0.0.2"
            },
            {
                "reference": "Observation/Observation.1.0.0.3"
            }
        ]
    }
}
,{
    "fullUrl": "Observation/Observation.1.0.0.1",
    "resource": {
        "resourceType": "Observation",
        "id": "Observation.1.0.0.1",
        "meta": {
            "profile": [
                "https://www.ehealth.fgov.be/standards/fhir/lab/StructureDefinition/be-observation-laboratory"
            ]
        },
        "text": {
            "status": "generated",
            "div": "<div xmlns=\"http://www.w3.org/1999/xhtml\"><p><b>code: </b>http://loinc.org 2160-0 Creatinine</p><p><b>subject: </b>Patient/7167869</p><p><b>effective: </b>2021-12-17T00:00:00+01:00</p><p><b>performer: </b>Practitioner/Responsible</p><p><b>result: </b>0,80 mg/dL</p><p><b>specimen: </b>Specimen/001815333055</p><p><b>referenceRange: </b> // Low: 0,50 mg/dL // High: 1,20 mg/dL // </p></div>"
        },
        "status": "final",
        "code": {
            "coding": [
                {
                    "system": "http://loinc.org",
                    "code": "2160-0"
                }
            ],
            "text": "Creatinine"
        },
        "subject": {
            "reference": "Patient/7167869"
        },
        "effectiveDateTime": "2021-12-17T00:00:00+01:00",
        "issued": "2021-12-17T11:47:32+01:00",
        "performer": [
            {
                "reference": "Practitioner/Responsible"
            }
        ],
        "valueQuantity": {
            "value": 0.80,
            "unit": "mg/dL",
            "system": "http://unitsofmeasure.org",
            "code": "mg/dL"
        },
        "specimen": {
            "reference": "Specimen/001815333055"
        },
        "referenceRange": [
            {
                "low": {
                    "value": 0.50,
                    "unit": "mg/dL",
                    "system": "http://unitsofmeasure.org",
                    "code": "mg/dL"
                },
                "high": {
                    "value": 1.20,
                    "unit": "mg/dL",
                    "system": "http://unitsofmeasure.org",
                    "code": "mg/dL"
                }
            }
        ]
    }
}
,{
    "fullUrl": "Observation/Observation.1.0.0.2",
    "resource": {
        "resourceType": "Observation",
        "id": "Observation.1.0.0.2",
        "meta": {
            "profile": [
                "https://www.ehealth.fgov.be/standards/fhir/lab/StructureDefinition/be-observation-laboratory"
            ]
        },
        "text": {
            "status": "generated",
            "div": "<div xmlns=\"http://www.w3.org/1999/xhtml\"><p><b>code: </b>http://loinc.org 3091-6 Ureum</p><p><b>subject: </b>Patient/7167869</p><p><b>effective: </b>2021-12-17T00:00:00+01:00</p><p><b>performer: </b>Practitioner/Responsible</p><p><b>result: </b>32,0 mg/dL</p><p><b>specimen: </b>Specimen/001815333055</p><p><b>referenceRange: </b> // Low: 14,0 mg/dL // High: 47,0 mg/dL // </p></div>"
        },
        "status": "final",
        "code": {
            "coding": [
                {
                    "system": "http://loinc.org",
                    "code": "3091-6"
                }
            ],
            "text": "Ureum"
        },
        "subject": {
            "reference": "Patient/7167869"
        },
        "effectiveDateTime": "2021-12-17T00:00:00+01:00",
        "issued": "2021-12-17T11:47:54+01:00",
        "performer": [
            {
                "reference": "Practitioner/Responsible"
            }
        ],
        "valueQuantity": {
            "value": 32.0,
            "unit": "mg/dL",
            "system": "http://unitsofmeasure.org",
            "code": "mg/dL"
        },
        "specimen": {
            "reference": "Specimen/001815333055"
        },
        "referenceRange": [
            {
                "low": {
                    "value": 14.0,
                    "unit": "mg/dL",
                    "system": "http://unitsofmeasure.org",
                    "code": "mg/dL"
                },
                "high": {
                    "value": 47.0,
                    "unit": "mg/dL",
                    "system": "http://unitsofmeasure.org",
                    "code": "mg/dL"
                }
            }
        ]
    }
}
,{
    "fullUrl": "Observation/Observation.1.0.0.3",
    "resource": {
        "resourceType": "Observation",
        "id": "Observation.1.0.0.3",
        "meta": {
            "profile": [
                "https://www.ehealth.fgov.be/standards/fhir/lab/StructureDefinition/be-observation-laboratory"
            ]
        },
        "text": {
            "status": "generated",
            "div": "<div xmlns=\"http://www.w3.org/1999/xhtml\"><p><b>code: </b>http://loinc.org 3084-1 Urinezuur</p><p><b>subject: </b>Patient/7167869</p><p><b>effective: </b>2021-12-17T00:00:00+01:00</p><p><b>performer: </b>Practitioner/Responsible</p><p><b>result: </b>6,5 mg/dL</p><p><b>specimen: </b>Specimen/001815333055</p><p><b>referenceRange: </b> // Low: 2,5 mg/dL // High: 7,9 mg/dL // </p></div>"
        },
        "status": "final",
        "code": {
            "coding": [
                {
                    "system": "http://loinc.org",
                    "code": "3084-1"
                }
            ],
            "text": "Urinezuur"
        },
        "subject": {
            "reference": "Patient/7167869"
        },
        "effectiveDateTime": "2021-12-17T00:00:00+01:00",
        "issued": "2021-12-17T11:48:05+01:00",
        "performer": [
            {
                "reference": "Practitioner/Responsible"
            }
        ],
        "valueQuantity": {
            "value": 6.5,
            "unit": "mg/dL",
            "system": "http://unitsofmeasure.org",
            "code": "mg/dL"
        },
        "specimen": {
            "reference": "Specimen/001815333055"
        },
        "referenceRange": [
            {
                "low": {
                    "value": 2.5,
                    "unit": "mg/dL",
                    "system": "http://unitsofmeasure.org",
                    "code": "mg/dL"
                },
                "high": {
                    "value": 7.9,
                    "unit": "mg/dL",
                    "system": "http://unitsofmeasure.org",
                    "code": "mg/dL"
                }
            }
        ]
    }
}
,{
    "fullUrl": "Observation/Observation.2.0.0.0",
    "resource": {
        "resourceType": "Observation",
        "id": "Observation.2.0.0.0",
        "meta": {
            "profile": [
                "https://www.ehealth.fgov.be/standards/fhir/lab/StructureDefinition/be-observation-laboratory"
            ]
        },
        "text": {
            "status": "generated",
            "div": "<div xmlns=\"http://www.w3.org/1999/xhtml\"><p><b>code: </b>ELEKTROLYTEN</p><p><b>subject: </b>Patient/7167869</p><p><b>effective: </b>2021-12-17T00:00:00+01:00</p><p><b>performer: </b>Practitioner/Responsible</p><p><b>member: </b> // Observation/Observation.2.0.0.1 // Observation/Observation.2.0.0.2 // Observation/Observation.2.0.0.3 // Observation/Observation.2.0.0.4 // Observation/Observation.2.0.0.5 // Observation/Observation.2.0.0.6 // Observation/Observation.2.0.0.7 // Observation/Observation.2.0.0.8 // </p></div>"
        },
        "status": "final",
        "code": {
            "text": "ELEKTROLYTEN"
        },
        "subject": {
            "reference": "Patient/7167869"
        },
        "effectiveDateTime": "2021-12-17T00:00:00+01:00",
        "performer": [
            {
                "reference": "Practitioner/Responsible"
            }
        ],
        "hasMember": [
            {
                "reference": "Observation/Observation.2.0.0.1"
            },
            {
                "reference": "Observation/Observation.2.0.0.2"
            },
            {
                "reference": "Observation/Observation.2.0.0.3"
            },
            {
                "reference": "Observation/Observation.2.0.0.4"
            },
            {
                "reference": "Observation/Observation.2.0.0.5"
            },
            {
                "reference": "Observation/Observation.2.0.0.6"
            },
            {
                "reference": "Observation/Observation.2.0.0.7"
            },
            {
                "reference": "Observation/Observation.2.0.0.8"
            }
        ]
    }
}
,{
    "fullUrl": "Observation/Observation.2.0.0.1",
    "resource": {
        "resourceType": "Observation",
        "id": "Observation.2.0.0.1",
        "meta": {
            "profile": [
                "https://www.ehealth.fgov.be/standards/fhir/lab/StructureDefinition/be-observation-laboratory"
            ]
        },
        "text": {
            "status": "generated",
            "div": "<div xmlns=\"http://www.w3.org/1999/xhtml\"><p><b>code: </b>http://loinc.org 2951-2 Natrium</p><p><b>subject: </b>Patient/7167869</p><p><b>effective: </b>2021-12-17T00:00:00+01:00</p><p><b>performer: </b>Practitioner/Responsible</p><p><b>result: </b>142 mmol/L</p><p><b>specimen: </b>Specimen/001815333055</p><p><b>referenceRange: </b> // Low: 136 mmol/L // High: 145 mmol/L // </p></div>"
        },
        "status": "final",
        "code": {
            "coding": [
                {
                    "system": "http://loinc.org",
                    "code": "2951-2"
                }
            ],
            "text": "Natrium"
        },
        "subject": {
            "reference": "Patient/7167869"
        },
        "effectiveDateTime": "2021-12-17T00:00:00+01:00",
        "issued": "2021-12-17T11:48:12+01:00",
        "performer": [
            {
                "reference": "Practitioner/Responsible"
            }
        ],
        "valueQuantity": {
            "value": 142,
            "unit": "mmol/L",
            "system": "http://unitsofmeasure.org",
            "code": "mmol/L"
        },
        "specimen": {
            "reference": "Specimen/001815333055"
        },
        "referenceRange": [
            {
                "low": {
                    "value": 136,
                    "unit": "mmol/L",
                    "system": "http://unitsofmeasure.org",
                    "code": "mmol/L"
                },
                "high": {
                    "value": 145,
                    "unit": "mmol/L",
                    "system": "http://unitsofmeasure.org",
                    "code": "mmol/L"
                }
            }
        ]
    }
}
,{
    "fullUrl": "Observation/Observation.2.0.0.2",
    "resource": {
        "resourceType": "Observation",
        "id": "Observation.2.0.0.2",
        "meta": {
            "profile": [
                "https://www.ehealth.fgov.be/standards/fhir/lab/StructureDefinition/be-observation-laboratory"
            ]
        },
        "text": {
            "status": "generated",
            "div": "<div xmlns=\"http://www.w3.org/1999/xhtml\"><p><b>code: </b>http://loinc.org 2823-3 Kalium</p><p><b>subject: </b>Patient/7167869</p><p><b>effective: </b>2021-12-17T00:00:00+01:00</p><p><b>performer: </b>Practitioner/Responsible</p><p><b>result: </b>4,60 mmol/L</p><p><b>specimen: </b>Specimen/001815333055</p><p><b>referenceRange: </b> // Low: 3,50 mmol/L // High: 5,10 mmol/L // </p></div>"
        },
        "status": "final",
        "code": {
            "coding": [
                {
                    "system": "http://loinc.org",
                    "code": "2823-3"
                }
            ],
            "text": "Kalium"
        },
        "subject": {
            "reference": "Patient/7167869"
        },
        "effectiveDateTime": "2021-12-17T00:00:00+01:00",
        "issued": "2021-12-17T11:48:17+01:00",
        "performer": [
            {
                "reference": "Practitioner/Responsible"
            }
        ],
        "valueQuantity": {
            "value": 4.60,
            "unit": "mmol/L",
            "system": "http://unitsofmeasure.org",
            "code": "mmol/L"
        },
        "specimen": {
            "reference": "Specimen/001815333055"
        },
        "referenceRange": [
            {
                "low": {
                    "value": 3.50,
                    "unit": "mmol/L",
                    "system": "http://unitsofmeasure.org",
                    "code": "mmol/L"
                },
                "high": {
                    "value": 5.10,
                    "unit": "mmol/L",
                    "system": "http://unitsofmeasure.org",
                    "code": "mmol/L"
                }
            }
        ]
    }
}
,{
    "fullUrl": "Observation/Observation.2.0.0.3",
    "resource": {
        "resourceType": "Observation",
        "id": "Observation.2.0.0.3",
        "meta": {
            "profile": [
                "https://www.ehealth.fgov.be/standards/fhir/lab/StructureDefinition/be-observation-laboratory"
            ]
        },
        "text": {
            "status": "generated",
            "div": "<div xmlns=\"http://www.w3.org/1999/xhtml\"><p><b>code: </b>http://loinc.org 2075-0 Chloride</p><p><b>subject: </b>Patient/7167869</p><p><b>effective: </b>2021-12-17T00:00:00+01:00</p><p><b>performer: </b>Practitioner/Responsible</p><p><b>result: </b>98 mmol/L</p><p><b>specimen: </b>Specimen/001815333055</p><p><b>referenceRange: </b> // Low: 98 mmol/L // High: 107 mmol/L // </p></div>"
        },
        "status": "final",
        "code": {
            "coding": [
                {
                    "system": "http://loinc.org",
                    "code": "2075-0"
                }
            ],
            "text": "Chloride"
        },
        "subject": {
            "reference": "Patient/7167869"
        },
        "effectiveDateTime": "2021-12-17T00:00:00+01:00",
        "issued": "2021-12-17T11:48:23+01:00",
        "performer": [
            {
                "reference": "Practitioner/Responsible"
            }
        ],
        "valueQuantity": {
            "value": 98,
            "unit": "mmol/L",
            "system": "http://unitsofmeasure.org",
            "code": "mmol/L"
        },
        "specimen": {
            "reference": "Specimen/001815333055"
        },
        "referenceRange": [
            {
                "low": {
                    "value": 98,
                    "unit": "mmol/L",
                    "system": "http://unitsofmeasure.org",
                    "code": "mmol/L"
                },
                "high": {
                    "value": 107,
                    "unit": "mmol/L",
                    "system": "http://unitsofmeasure.org",
                    "code": "mmol/L"
                }
            }
        ]
    }
}
,{
    "fullUrl": "Observation/Observation.2.0.0.4",
    "resource": {
        "resourceType": "Observation",
        "id": "Observation.2.0.0.4",
        "meta": {
            "profile": [
                "https://www.ehealth.fgov.be/standards/fhir/lab/StructureDefinition/be-observation-laboratory"
            ]
        },
        "text": {
            "status": "generated",
            "div": "<div xmlns=\"http://www.w3.org/1999/xhtml\"><p><b>code: </b>http://loinc.org 1963-8 Bicarbonaat</p><p><b>subject: </b>Patient/7167869</p><p><b>effective: </b>2021-12-17T00:00:00+01:00</p><p><b>performer: </b>Practitioner/Responsible</p><p><b>result: </b>29 mmol/L</p><p><b>specimen: </b>Specimen/001815333055</p><p><b>referenceRange: </b> // Low: 21 mmol/L // High: 31 mmol/L // </p></div>"
        },
        "status": "final",
        "code": {
            "coding": [
                {
                    "system": "http://loinc.org",
                    "code": "1963-8"
                }
            ],
            "text": "Bicarbonaat"
        },
        "subject": {
            "reference": "Patient/7167869"
        },
        "effectiveDateTime": "2021-12-17T00:00:00+01:00",
        "issued": "2021-12-17T11:48:49+01:00",
        "performer": [
            {
                "reference": "Practitioner/Responsible"
            }
        ],
        "valueQuantity": {
            "value": 29,
            "unit": "mmol/L",
            "system": "http://unitsofmeasure.org",
            "code": "mmol/L"
        },
        "specimen": {
            "reference": "Specimen/001815333055"
        },
        "referenceRange": [
            {
                "low": {
                    "value": 21,
                    "unit": "mmol/L",
                    "system": "http://unitsofmeasure.org",
                    "code": "mmol/L"
                },
                "high": {
                    "value": 31,
                    "unit": "mmol/L",
                    "system": "http://unitsofmeasure.org",
                    "code": "mmol/L"
                }
            }
        ]
    }
}
,{
    "fullUrl": "Observation/Observation.2.0.0.5",
    "resource": {
        "resourceType": "Observation",
        "id": "Observation.2.0.0.5",
        "meta": {
            "profile": [
                "https://www.ehealth.fgov.be/standards/fhir/lab/StructureDefinition/be-observation-laboratory"
            ]
        },
        "text": {
            "status": "generated",
            "div": "<div xmlns=\"http://www.w3.org/1999/xhtml\"><p><b>code: </b>http://loinc.org 2692-2 Osmolaliteit</p><p><b>subject: </b>Patient/7167869</p><p><b>effective: </b>2021-12-17T00:00:00+01:00</p><p><b>performer: </b>Practitioner/Responsible</p><p><b>result: </b>289 mosm/kg</p><p><b>specimen: </b>Specimen/001815333055</p><p><b>referenceRange: </b> // Low: 275 mosm/kg // High: 295 mosm/kg // </p></div>"
        },
        "status": "final",
        "code": {
            "coding": [
                {
                    "system": "http://loinc.org",
                    "code": "2692-2"
                }
            ],
            "text": "Osmolaliteit"
        },
        "subject": {
            "reference": "Patient/7167869"
        },
        "effectiveDateTime": "2021-12-17T00:00:00+01:00",
        "issued": "2021-12-17T11:48:36+01:00",
        "performer": [
            {
                "reference": "Practitioner/Responsible"
            }
        ],
        "valueQuantity": {
            "value": 289,
            "unit": "mosm/kg",
            "system": "http://unitsofmeasure.org",
            "code": "mosm/kg"
        },
        "specimen": {
            "reference": "Specimen/001815333055"
        },
        "referenceRange": [
            {
                "low": {
                    "value": 275,
                    "unit": "mosm/kg",
                    "system": "http://unitsofmeasure.org",
                    "code": "mosm/kg"
                },
                "high": {
                    "value": 295,
                    "unit": "mosm/kg",
                    "system": "http://unitsofmeasure.org",
                    "code": "mosm/kg"
                }
            }
        ]
    }
}
,{
    "fullUrl": "Observation/Observation.2.0.0.6",
    "resource": {
        "resourceType": "Observation",
        "id": "Observation.2.0.0.6",
        "meta": {
            "profile": [
                "https://www.ehealth.fgov.be/standards/fhir/lab/StructureDefinition/be-observation-laboratory"
            ]
        },
        "text": {
            "status": "generated",
            "div": "<div xmlns=\"http://www.w3.org/1999/xhtml\"><p><b>code: </b>http://loinc.org 14879-1 Fosfor</p><p><b>subject: </b>Patient/7167869</p><p><b>effective: </b>2021-12-17T00:00:00+01:00</p><p><b>performer: </b>Practitioner/Responsible</p><p><b>result: </b>2,10 mmol/L</p><p><b>specimen: </b>Specimen/001815333055</p><p><b>interpretation: </b>H</p><p><b>referenceRange: </b> // Low: 0,81 mmol/L // High: 1,45 mmol/L // </p></div>"
        },
        "status": "final",
        "code": {
            "coding": [
                {
                    "system": "http://loinc.org",
                    "code": "14879-1"
                }
            ],
            "text": "Fosfor"
        },
        "subject": {
            "reference": "Patient/7167869"
        },
        "effectiveDateTime": "2021-12-17T00:00:00+01:00",
        "issued": "2021-12-17T11:48:57+01:00",
        "performer": [
            {
                "reference": "Practitioner/Responsible"
            }
        ],
        "valueQuantity": {
            "value": 2.10,
            "unit": "mmol/L",
            "system": "http://unitsofmeasure.org",
            "code": "mmol/L"
        },
        "interpretation": [
            {
                "coding": [
                    {
                        "system": "http://terminology.hl7.org/CodeSystem/v3-ObservationInterpretation",
                        "code": "H"
                    }
                ]
            }
        ],
        "specimen": {
            "reference": "Specimen/001815333055"
        },
        "referenceRange": [
            {
                "low": {
                    "value": 0.81,
                    "unit": "mmol/L",
                    "system": "http://unitsofmeasure.org",
                    "code": "mmol/L"
                },
                "high": {
                    "value": 1.45,
                    "unit": "mmol/L",
                    "system": "http://unitsofmeasure.org",
                    "code": "mmol/L"
                }
            }
        ]
    }
}
,{
    "fullUrl": "Observation/Observation.2.0.0.7",
    "resource": {
        "resourceType": "Observation",
        "id": "Observation.2.0.0.7",
        "meta": {
            "profile": [
                "https://www.ehealth.fgov.be/standards/fhir/lab/StructureDefinition/be-observation-laboratory"
            ]
        },
        "text": {
            "status": "generated",
            "div": "<div xmlns=\"http://www.w3.org/1999/xhtml\"><p><b>code: </b>http://loinc.org 2601-3 Magnesium</p><p><b>subject: </b>Patient/7167869</p><p><b>effective: </b>2021-12-17T00:00:00+01:00</p><p><b>performer: </b>Practitioner/Responsible</p><p><b>result: </b>0,89 mmol/L</p><p><b>specimen: </b>Specimen/001815333055</p><p><b>referenceRange: </b> // Low: 0,66 mmol/L // High: 1,07 mmol/L // </p></div>"
        },
        "status": "final",
        "code": {
            "coding": [
                {
                    "system": "http://loinc.org",
                    "code": "2601-3"
                }
            ],
            "text": "Magnesium"
        },
        "subject": {
            "reference": "Patient/7167869"
        },
        "effectiveDateTime": "2021-12-17T00:00:00+01:00",
        "issued": "2021-12-17T11:49:29+01:00",
        "performer": [
            {
                "reference": "Practitioner/Responsible"
            }
        ],
        "valueQuantity": {
            "value": 0.89,
            "unit": "mmol/L",
            "system": "http://unitsofmeasure.org",
            "code": "mmol/L"
        },
        "specimen": {
            "reference": "Specimen/001815333055"
        },
        "referenceRange": [
            {
                "low": {
                    "value": 0.66,
                    "unit": "mmol/L",
                    "system": "http://unitsofmeasure.org",
                    "code": "mmol/L"
                },
                "high": {
                    "value": 1.07,
                    "unit": "mmol/L",
                    "system": "http://unitsofmeasure.org",
                    "code": "mmol/L"
                }
            }
        ]
    }
}
,{
    "fullUrl": "Observation/Observation.2.0.0.8",
    "resource": {
        "resourceType": "Observation",
        "id": "Observation.2.0.0.8",
        "meta": {
            "profile": [
                "https://www.ehealth.fgov.be/standards/fhir/lab/StructureDefinition/be-observation-laboratory"
            ]
        },
        "text": {
            "status": "generated",
            "div": "<div xmlns=\"http://www.w3.org/1999/xhtml\"><p><b>code: </b>http://loinc.org 2593-2 Magnesium erytrocytair</p><p><b>subject: </b>Patient/7167869</p><p><b>effective: </b>2021-12-17T00:00:00+01:00</p><p><b>performer: </b>Practitioner/Responsible</p><p><b>result: </b>2,45 mmol/L</p><p><b>specimen: </b>Specimen/002815333055</p><p><b>referenceRange: </b> // Low: 1,98 mmol/L // High: 3,00 mmol/L // </p></div>"
        },
        "status": "final",
        "code": {
            "coding": [
                {
                    "system": "http://loinc.org",
                    "code": "2593-2"
                }
            ],
            "text": "Magnesium erytrocytair"
        },
        "subject": {
            "reference": "Patient/7167869"
        },
        "effectiveDateTime": "2021-12-17T00:00:00+01:00",
        "issued": "2021-12-17T11:49:39+01:00",
        "performer": [
            {
                "reference": "Practitioner/Responsible"
            }
        ],
        "valueQuantity": {
            "value": 2.45,
            "unit": "mmol/L",
            "system": "http://unitsofmeasure.org",
            "code": "mmol/L"
        },
        "specimen": {
            "reference": "Specimen/002815333055"
        },
        "referenceRange": [
            {
                "low": {
                    "value": 1.98,
                    "unit": "mmol/L",
                    "system": "http://unitsofmeasure.org",
                    "code": "mmol/L"
                },
                "high": {
                    "value": 3.00,
                    "unit": "mmol/L",
                    "system": "http://unitsofmeasure.org",
                    "code": "mmol/L"
                }
            }
        ]
    }
}
,{
    "fullUrl": "Observation/Observation.3.0.0.0",
    "resource": {
        "resourceType": "Observation",
        "id": "Observation.3.0.0.0",
        "meta": {
            "profile": [
                "https://www.ehealth.fgov.be/standards/fhir/lab/StructureDefinition/be-observation-laboratory"
            ]
        },
        "text": {
            "status": "generated",
            "div": "<div xmlns=\"http://www.w3.org/1999/xhtml\"><p><b>code: </b>NUTRITIE</p><p><b>subject: </b>Patient/7167869</p><p><b>effective: </b>2021-12-17T00:00:00+01:00</p><p><b>performer: </b>Practitioner/Responsible</p><p><b>member: </b> // Observation/Observation.3.0.0.1 // Observation/Observation.3.0.0.2 // </p></div>"
        },
        "status": "final",
        "code": {
            "text": "NUTRITIE"
        },
        "subject": {
            "reference": "Patient/7167869"
        },
        "effectiveDateTime": "2021-12-17T00:00:00+01:00",
        "performer": [
            {
                "reference": "Practitioner/Responsible"
            }
        ],
        "hasMember": [
            {
                "reference": "Observation/Observation.3.0.0.1"
            },
            {
                "reference": "Observation/Observation.3.0.0.2"
            }
        ]
    }
}
,{
    "fullUrl": "Observation/Observation.3.0.0.1",
    "resource": {
        "resourceType": "Observation",
        "id": "Observation.3.0.0.1",
        "meta": {
            "profile": [
                "https://www.ehealth.fgov.be/standards/fhir/lab/StructureDefinition/be-observation-laboratory"
            ]
        },
        "text": {
            "status": "generated",
            "div": "<div xmlns=\"http://www.w3.org/1999/xhtml\"><p><b>code: </b>http://loinc.org 5763-8 Zink</p><p><b>subject: </b>Patient/7167869</p><p><b>effective: </b>2021-12-17T00:00:00+01:00</p><p><b>performer: </b>Practitioner/Responsible</p><p><b>result: </b>110 ug/dL</p><p><b>specimen: </b>Specimen/001815333055</p><p><b>referenceRange: </b> // Low: 70 ug/dL // High: 120 ug/dL // </p></div>"
        },
        "status": "final",
        "code": {
            "coding": [
                {
                    "system": "http://loinc.org",
                    "code": "5763-8"
                }
            ],
            "text": "Zink"
        },
        "subject": {
            "reference": "Patient/7167869"
        },
        "effectiveDateTime": "2021-12-17T00:00:00+01:00",
        "issued": "2021-12-17T11:50:03+01:00",
        "performer": [
            {
                "reference": "Practitioner/Responsible"
            }
        ],
        "valueQuantity": {
            "value": 110,
            "unit": "ug/dL",
            "system": "http://unitsofmeasure.org",
            "code": "ug/dL"
        },
        "specimen": {
            "reference": "Specimen/001815333055"
        },
        "referenceRange": [
            {
                "low": {
                    "value": 70,
                    "unit": "ug/dL",
                    "system": "http://unitsofmeasure.org",
                    "code": "ug/dL"
                },
                "high": {
                    "value": 120,
                    "unit": "ug/dL",
                    "system": "http://unitsofmeasure.org",
                    "code": "ug/dL"
                }
            }
        ]
    }
}
,{
    "fullUrl": "Observation/Observation.3.0.0.2",
    "resource": {
        "resourceType": "Observation",
        "id": "Observation.3.0.0.2",
        "meta": {
            "profile": [
                "https://www.ehealth.fgov.be/standards/fhir/lab/StructureDefinition/be-observation-laboratory"
            ]
        },
        "text": {
            "status": "generated",
            "div": "<div xmlns=\"http://www.w3.org/1999/xhtml\"><p><b>code: </b>http://loinc.org 5631-7 Koper</p><p><b>subject: </b>Patient/7167869</p><p><b>effective: </b>2021-12-17T00:00:00+01:00</p><p><b>performer: </b>Practitioner/Responsible</p><p><b>result: </b>155 ug/dL</p><p><b>specimen: </b>Specimen/001815333055</p><p><b>referenceRange: </b> // Low: 70 ug/dL // High: 155 ug/dL // </p></div>"
        },
        "status": "final",
        "code": {
            "coding": [
                {
                    "system": "http://loinc.org",
                    "code": "5631-7"
                }
            ],
            "text": "Koper"
        },
        "subject": {
            "reference": "Patient/7167869"
        },
        "effectiveDateTime": "2021-12-17T00:00:00+01:00",
        "issued": "2021-12-17T11:50:20+01:00",
        "performer": [
            {
                "reference": "Practitioner/Responsible"
            }
        ],
        "valueQuantity": {
            "value": 155,
            "unit": "ug/dL",
            "system": "http://unitsofmeasure.org",
            "code": "ug/dL"
        },
        "specimen": {
            "reference": "Specimen/001815333055"
        },
        "referenceRange": [
            {
                "low": {
                    "value": 70,
                    "unit": "ug/dL",
                    "system": "http://unitsofmeasure.org",
                    "code": "ug/dL"
                },
                "high": {
                    "value": 155,
                    "unit": "ug/dL",
                    "system": "http://unitsofmeasure.org",
                    "code": "ug/dL"
                }
            }
        ]
    }
}
,{
    "fullUrl": "Observation/Observation.4.0.0.0",
    "resource": {
        "resourceType": "Observation",
        "id": "Observation.4.0.0.0",
        "meta": {
            "profile": [
                "https://www.ehealth.fgov.be/standards/fhir/lab/StructureDefinition/be-observation-laboratory"
            ]
        },
        "text": {
            "status": "generated",
            "div": "<div xmlns=\"http://www.w3.org/1999/xhtml\"><p><b>code: </b>LEVER EN GAL</p><p><b>subject: </b>Patient/7167869</p><p><b>effective: </b>2021-12-17T00:00:00+01:00</p><p><b>performer: </b>Practitioner/Responsible</p><p><b>member: </b> // Observation/Observation.4.0.0.1 // Observation/Observation.4.0.0.2 // Observation/Observation.4.0.0.3 // Observation/Observation.4.0.0.4 // Observation/Observation.4.0.0.5 // Observation/Observation.4.0.0.6 // Observation/Observation.4.0.0.7 // Observation/Observation.4.0.0.8 // </p></div>"
        },
        "status": "final",
        "code": {
            "text": "LEVER EN GAL"
        },
        "subject": {
            "reference": "Patient/7167869"
        },
        "effectiveDateTime": "2021-12-17T00:00:00+01:00",
        "performer": [
            {
                "reference": "Practitioner/Responsible"
            }
        ],
        "hasMember": [
            {
                "reference": "Observation/Observation.4.0.0.1"
            },
            {
                "reference": "Observation/Observation.4.0.0.2"
            },
            {
                "reference": "Observation/Observation.4.0.0.3"
            },
            {
                "reference": "Observation/Observation.4.0.0.4"
            },
            {
                "reference": "Observation/Observation.4.0.0.5"
            },
            {
                "reference": "Observation/Observation.4.0.0.6"
            },
            {
                "reference": "Observation/Observation.4.0.0.7"
            },
            {
                "reference": "Observation/Observation.4.0.0.8"
            }
        ]
    }
}
,{
    "fullUrl": "Observation/Observation.4.0.0.1",
    "resource": {
        "resourceType": "Observation",
        "id": "Observation.4.0.0.1",
        "meta": {
            "profile": [
                "https://www.ehealth.fgov.be/standards/fhir/lab/StructureDefinition/be-observation-laboratory"
            ]
        },
        "text": {
            "status": "generated",
            "div": "<div xmlns=\"http://www.w3.org/1999/xhtml\"><p><b>code: </b>http://loinc.org 1975-2 Bilirubine totaal</p><p><b>subject: </b>Patient/7167869</p><p><b>effective: </b>2021-12-17T00:00:00+01:00</p><p><b>performer: </b>Practitioner/Responsible</p><p><b>result: </b>3,50 mg/dL</p><p><b>specimen: </b>Specimen/001815333055</p><p><b>interpretation: </b>H</p><p><b>referenceRange: </b> // High: 1,20 mg/dL // </p></div>"
        },
        "status": "final",
        "code": {
            "coding": [
                {
                    "system": "http://loinc.org",
                    "code": "1975-2"
                }
            ],
            "text": "Bilirubine totaal"
        },
        "subject": {
            "reference": "Patient/7167869"
        },
        "effectiveDateTime": "2021-12-17T00:00:00+01:00",
        "issued": "2021-12-17T11:50:31+01:00",
        "performer": [
            {
                "reference": "Practitioner/Responsible"
            }
        ],
        "valueQuantity": {
            "value": 3.50,
            "unit": "mg/dL",
            "system": "http://unitsofmeasure.org",
            "code": "mg/dL"
        },
        "interpretation": [
            {
                "coding": [
                    {
                        "system": "http://terminology.hl7.org/CodeSystem/v3-ObservationInterpretation",
                        "code": "H"
                    }
                ]
            }
        ],
        "specimen": {
            "reference": "Specimen/001815333055"
        },
        "referenceRange": [
            {
                "high": {
                    "value": 1.20,
                    "unit": "mg/dL",
                    "system": "http://unitsofmeasure.org",
                    "code": "mg/dL"
                }
            }
        ]
    }
}
,{
    "fullUrl": "Observation/Observation.4.0.0.2",
    "resource": {
        "resourceType": "Observation",
        "id": "Observation.4.0.0.2",
        "meta": {
            "profile": [
                "https://www.ehealth.fgov.be/standards/fhir/lab/StructureDefinition/be-observation-laboratory"
            ]
        },
        "text": {
            "status": "generated",
            "div": "<div xmlns=\"http://www.w3.org/1999/xhtml\"><p><b>code: </b>http://loinc.org 15152-2 Bilirubine direct</p><p><b>subject: </b>Patient/7167869</p><p><b>effective: </b>2021-12-17T00:00:00+01:00</p><p><b>performer: </b>Practitioner/Responsible</p><p><b>result: </b>0,50 mg/dL</p><p><b>specimen: </b>Specimen/001815333055</p><p><b>interpretation: </b>H</p><p><b>referenceRange: </b> // High: 0,40 mg/dL // </p></div>"
        },
        "status": "final",
        "code": {
            "coding": [
                {
                    "system": "http://loinc.org",
                    "code": "15152-2"
                }
            ],
            "text": "Bilirubine direct"
        },
        "subject": {
            "reference": "Patient/7167869"
        },
        "effectiveDateTime": "2021-12-17T00:00:00+01:00",
        "issued": "2021-12-17T11:50:36+01:00",
        "performer": [
            {
                "reference": "Practitioner/Responsible"
            }
        ],
        "valueQuantity": {
            "value": 0.50,
            "unit": "mg/dL",
            "system": "http://unitsofmeasure.org",
            "code": "mg/dL"
        },
        "interpretation": [
            {
                "coding": [
                    {
                        "system": "http://terminology.hl7.org/CodeSystem/v3-ObservationInterpretation",
                        "code": "H"
                    }
                ]
            }
        ],
        "specimen": {
            "reference": "Specimen/001815333055"
        },
        "referenceRange": [
            {
                "high": {
                    "value": 0.40,
                    "unit": "mg/dL",
                    "system": "http://unitsofmeasure.org",
                    "code": "mg/dL"
                }
            }
        ]
    }
}
,{
    "fullUrl": "Observation/Observation.4.0.0.3",
    "resource": {
        "resourceType": "Observation",
        "id": "Observation.4.0.0.3",
        "meta": {
            "profile": [
                "https://www.ehealth.fgov.be/standards/fhir/lab/StructureDefinition/be-observation-laboratory"
            ]
        },
        "text": {
            "status": "generated",
            "div": "<div xmlns=\"http://www.w3.org/1999/xhtml\"><p><b>code: </b>http://loinc.org 1971-1 Bilirubine indirect</p><p><b>subject: </b>Patient/7167869</p><p><b>effective: </b>2021-12-17T00:00:00+01:00</p><p><b>performer: </b>Practitioner/Responsible</p><p><b>result: </b>3,00 mg/dL</p><p><b>specimen: </b>Specimen/001815333055</p><p><b>interpretation: </b>H</p><p><b>referenceRange: </b> // High: 1,10 mg/dL // </p></div>"
        },
        "status": "final",
        "code": {
            "coding": [
                {
                    "system": "http://loinc.org",
                    "code": "1971-1"
                }
            ],
            "text": "Bilirubine indirect"
        },
        "subject": {
            "reference": "Patient/7167869"
        },
        "effectiveDateTime": "2021-12-17T00:00:00+01:00",
        "issued": "2021-12-17T11:50:36+01:00",
        "performer": [
            {
                "reference": "Practitioner/Responsible"
            }
        ],
        "valueQuantity": {
            "value": 3.00,
            "unit": "mg/dL",
            "system": "http://unitsofmeasure.org",
            "code": "mg/dL"
        },
        "interpretation": [
            {
                "coding": [
                    {
                        "system": "http://terminology.hl7.org/CodeSystem/v3-ObservationInterpretation",
                        "code": "H"
                    }
                ]
            }
        ],
        "specimen": {
            "reference": "Specimen/001815333055"
        },
        "referenceRange": [
            {
                "high": {
                    "value": 1.10,
                    "unit": "mg/dL",
                    "system": "http://unitsofmeasure.org",
                    "code": "mg/dL"
                }
            }
        ]
    }
}
,{
    "fullUrl": "Observation/Observation.4.0.0.4",
    "resource": {
        "resourceType": "Observation",
        "id": "Observation.4.0.0.4",
        "meta": {
            "profile": [
                "https://www.ehealth.fgov.be/standards/fhir/lab/StructureDefinition/be-observation-laboratory"
            ]
        },
        "text": {
            "status": "generated",
            "div": "<div xmlns=\"http://www.w3.org/1999/xhtml\"><p><b>code: </b>http://loinc.org 1920-8 GOT (AST)</p><p><b>subject: </b>Patient/7167869</p><p><b>effective: </b>2021-12-17T00:00:00+01:00</p><p><b>performer: </b>Practitioner/Responsible</p><p><b>result: </b>65 U/L</p><p><b>specimen: </b>Specimen/001815333055</p><p><b>interpretation: </b>H</p><p><b>referenceRange: </b> // High: 40 U/L // </p></div>"
        },
        "status": "final",
        "code": {
            "coding": [
                {
                    "system": "http://loinc.org",
                    "code": "1920-8"
                }
            ],
            "text": "GOT (AST)"
        },
        "subject": {
            "reference": "Patient/7167869"
        },
        "effectiveDateTime": "2021-12-17T00:00:00+01:00",
        "issued": "2021-12-17T11:50:43+01:00",
        "performer": [
            {
                "reference": "Practitioner/Responsible"
            }
        ],
        "valueQuantity": {
            "value": 65,
            "unit": "U/L",
            "system": "http://unitsofmeasure.org",
            "code": "U/L"
        },
        "interpretation": [
            {
                "coding": [
                    {
                        "system": "http://terminology.hl7.org/CodeSystem/v3-ObservationInterpretation",
                        "code": "H"
                    }
                ]
            }
        ],
        "specimen": {
            "reference": "Specimen/001815333055"
        },
        "referenceRange": [
            {
                "high": {
                    "value": 40,
                    "unit": "U/L",
                    "system": "http://unitsofmeasure.org",
                    "code": "U/L"
                }
            }
        ]
    }
}
,{
    "fullUrl": "Observation/Observation.4.0.0.5",
    "resource": {
        "resourceType": "Observation",
        "id": "Observation.4.0.0.5",
        "meta": {
            "profile": [
                "https://www.ehealth.fgov.be/standards/fhir/lab/StructureDefinition/be-observation-laboratory"
            ]
        },
        "text": {
            "status": "generated",
            "div": "<div xmlns=\"http://www.w3.org/1999/xhtml\"><p><b>code: </b>http://loinc.org 1742-6 GPT (ALT)</p><p><b>subject: </b>Patient/7167869</p><p><b>effective: </b>2021-12-17T00:00:00+01:00</p><p><b>performer: </b>Practitioner/Responsible</p><p><b>result: </b>71 U/L</p><p><b>specimen: </b>Specimen/001815333055</p><p><b>interpretation: </b>H</p><p><b>referenceRange: </b> // High: 41 U/L // </p></div>"
        },
        "status": "final",
        "code": {
            "coding": [
                {
                    "system": "http://loinc.org",
                    "code": "1742-6"
                }
            ],
            "text": "GPT (ALT)"
        },
        "subject": {
            "reference": "Patient/7167869"
        },
        "effectiveDateTime": "2021-12-17T00:00:00+01:00",
        "issued": "2021-12-17T11:50:50+01:00",
        "performer": [
            {
                "reference": "Practitioner/Responsible"
            }
        ],
        "valueQuantity": {
            "value": 71,
            "unit": "U/L",
            "system": "http://unitsofmeasure.org",
            "code": "U/L"
        },
        "interpretation": [
            {
                "coding": [
                    {
                        "system": "http://terminology.hl7.org/CodeSystem/v3-ObservationInterpretation",
                        "code": "H"
                    }
                ]
            }
        ],
        "specimen": {
            "reference": "Specimen/001815333055"
        },
        "referenceRange": [
            {
                "high": {
                    "value": 41,
                    "unit": "U/L",
                    "system": "http://unitsofmeasure.org",
                    "code": "U/L"
                }
            }
        ]
    }
}
,{
    "fullUrl": "Observation/Observation.4.0.0.6",
    "resource": {
        "resourceType": "Observation",
        "id": "Observation.4.0.0.6",
        "meta": {
            "profile": [
                "https://www.ehealth.fgov.be/standards/fhir/lab/StructureDefinition/be-observation-laboratory"
            ]
        },
        "text": {
            "status": "generated",
            "div": "<div xmlns=\"http://www.w3.org/1999/xhtml\"><p><b>code: </b>http://loinc.org 2324-2 Gamma-GT</p><p><b>subject: </b>Patient/7167869</p><p><b>effective: </b>2021-12-17T00:00:00+01:00</p><p><b>performer: </b>Practitioner/Responsible</p><p><b>result: </b>34 U/L</p><p><b>specimen: </b>Specimen/001815333055</p><p><b>referenceRange: </b> // High: 61 U/L // </p></div>"
        },
        "status": "final",
        "code": {
            "coding": [
                {
                    "system": "http://loinc.org",
                    "code": "2324-2"
                }
            ],
            "text": "Gamma-GT"
        },
        "subject": {
            "reference": "Patient/7167869"
        },
        "effectiveDateTime": "2021-12-17T00:00:00+01:00",
        "issued": "2021-12-17T11:50:54+01:00",
        "performer": [
            {
                "reference": "Practitioner/Responsible"
            }
        ],
        "valueQuantity": {
            "value": 34,
            "unit": "U/L",
            "system": "http://unitsofmeasure.org",
            "code": "U/L"
        },
        "specimen": {
            "reference": "Specimen/001815333055"
        },
        "referenceRange": [
            {
                "high": {
                    "value": 61,
                    "unit": "U/L",
                    "system": "http://unitsofmeasure.org",
                    "code": "U/L"
                }
            }
        ]
    }
}
,{
    "fullUrl": "Observation/Observation.4.0.0.7",
    "resource": {
        "resourceType": "Observation",
        "id": "Observation.4.0.0.7",
        "meta": {
            "profile": [
                "https://www.ehealth.fgov.be/standards/fhir/lab/StructureDefinition/be-observation-laboratory"
            ]
        },
        "text": {
            "status": "generated",
            "div": "<div xmlns=\"http://www.w3.org/1999/xhtml\"><p><b>code: </b>http://loinc.org 6768-6 Alkalische fosfatase</p><p><b>subject: </b>Patient/7167869</p><p><b>effective: </b>2021-12-17T00:00:00+01:00</p><p><b>performer: </b>Practitioner/Responsible</p><p><b>result: </b>56 U/L</p><p><b>specimen: </b>Specimen/001815333055</p><p><b>referenceRange: </b> // Low: 35 U/L // High: 129 U/L // </p></div>"
        },
        "status": "final",
        "code": {
            "coding": [
                {
                    "system": "http://loinc.org",
                    "code": "6768-6"
                }
            ],
            "text": "Alkalische fosfatase"
        },
        "subject": {
            "reference": "Patient/7167869"
        },
        "effectiveDateTime": "2021-12-17T00:00:00+01:00",
        "issued": "2021-12-17T11:50:58+01:00",
        "performer": [
            {
                "reference": "Practitioner/Responsible"
            }
        ],
        "valueQuantity": {
            "value": 56,
            "unit": "U/L",
            "system": "http://unitsofmeasure.org",
            "code": "U/L"
        },
        "specimen": {
            "reference": "Specimen/001815333055"
        },
        "referenceRange": [
            {
                "low": {
                    "value": 35,
                    "unit": "U/L",
                    "system": "http://unitsofmeasure.org",
                    "code": "U/L"
                },
                "high": {
                    "value": 129,
                    "unit": "U/L",
                    "system": "http://unitsofmeasure.org",
                    "code": "U/L"
                }
            }
        ]
    }
}
,{
    "fullUrl": "Observation/Observation.4.0.0.8",
    "resource": {
        "resourceType": "Observation",
        "id": "Observation.4.0.0.8",
        "meta": {
            "profile": [
                "https://www.ehealth.fgov.be/standards/fhir/lab/StructureDefinition/be-observation-laboratory"
            ]
        },
        "text": {
            "status": "generated",
            "div": "<div xmlns=\"http://www.w3.org/1999/xhtml\"><p><b>code: </b>http://loinc.org 2532-0 LDH</p><p><b>subject: </b>Patient/7167869</p><p><b>effective: </b>2021-12-17T00:00:00+01:00</p><p><b>performer: </b>Practitioner/Responsible</p><p><b>result: </b>355 U/L</p><p><b>specimen: </b>Specimen/001815333055</p><p><b>interpretation: </b>H</p><p><b>referenceRange: </b> // High: 250 U/L // </p></div>"
        },
        "status": "final",
        "code": {
            "coding": [
                {
                    "system": "http://loinc.org",
                    "code": "2532-0"
                }
            ],
            "text": "LDH"
        },
        "subject": {
            "reference": "Patient/7167869"
        },
        "effectiveDateTime": "2021-12-17T00:00:00+01:00",
        "issued": "2021-12-17T11:51:13+01:00",
        "performer": [
            {
                "reference": "Practitioner/Responsible"
            }
        ],
        "valueQuantity": {
            "value": 355,
            "unit": "U/L",
            "system": "http://unitsofmeasure.org",
            "code": "U/L"
        },
        "interpretation": [
            {
                "coding": [
                    {
                        "system": "http://terminology.hl7.org/CodeSystem/v3-ObservationInterpretation",
                        "code": "H"
                    }
                ]
            }
        ],
        "specimen": {
            "reference": "Specimen/001815333055"
        },
        "referenceRange": [
            {
                "high": {
                    "value": 250,
                    "unit": "U/L",
                    "system": "http://unitsofmeasure.org",
                    "code": "U/L"
                }
            }
        ]
    }
}
,{
    "fullUrl": "DiagnosticReport/815333055",
    "resource": {
        "resourceType": "DiagnosticReport",
        "id": "815333055",
        "meta": {
            "versionId": "4",
            "profile": [
                "https://www.ehealth.fgov.be/standards/fhir/lab/StructureDefinition/be-laboratory-report"
            ]
        },
        "language": "nl",
        "text": {
            "status": "generated",
            "div": "<div xmlns=\"http://www.w3.org/1999/xhtml\" xml:lang=\"nl\" lang=\"nl\"><p><b>id: </b>815333055</p><p><b>basedOn: </b>ServiceRequest/815333055</p><p><b>status: </b>final</p><p><b>category: </b>http://terminology.hl7.org/CodeSystem/v2-0074 LAB Laboratory</p><p><b>code: </b>http://loinc.org 11502-2 Laboratory report</p><p><b>subject: </b>Patient/7167869</p><p><b>effective: </b>2021-12-17T00:00:00+01:00</p><p><b>issued: </b>2021-12-21T11:01:16+01:00</p><p><b>performer: </b>Organization/81365677998</p><p><b>resultsInterpreter: </b>Practitioner/Responsible</p><p><b>specimen: </b> // Specimen/001815333055 // Specimen/002815333055 // </p><p><b>result: </b> // Observation/Observation.1.0.0.0 // Observation/Observation.2.0.0.0 // Observation/Observation.3.0.0.0 // Observation/Observation.4.0.0.0 // </p></div>"
        },
        "identifier": [
            {
                "system": "https://www.ehealth.fgov.be/lab-report/diagnostic-report-id",
                "value": "81365677998.815333055"
            }
        ],
        "basedOn": [
            {
                "reference": "ServiceRequest/815333055"
            }
        ],
        "status": "final",
        "category": [
            {
                "coding": [
                    {
                        "system": "http://terminology.hl7.org/CodeSystem/v2-0074",
                        "code": "LAB",
                        "display": "Laboratory"
                    }
                ]
            }
        ],
        "code": {
            "coding": [
                {
                    "system": "http://loinc.org",
                    "code": "11502-2",
                    "display": "Laboratory report"
                }
            ]
        },
        "subject": {
            "reference": "Patient/7167869"
        },
        "effectiveDateTime": "2021-12-17T00:00:00+01:00",
        "issued": "2021-12-21T11:01:16+01:00",
        "performer": [
            {
                "reference": "Organization/81365677998"
            }
        ],
        "resultsInterpreter": [
            {
                "reference": "Practitioner/Responsible"
            }
        ],
        "specimen": [
            {
                "reference": "Specimen/001815333055"
            },
            {
                "reference": "Specimen/002815333055"
            }
        ],
        "result": [
            {
                "reference": "Observation/Observation.1.0.0.0"
            },
            {
                "reference": "Observation/Observation.2.0.0.0"
            },
            {
                "reference": "Observation/Observation.3.0.0.0"
            },
            {
                "reference": "Observation/Observation.4.0.0.0"
            }
        ],
        "presentedForm": [
            {
                "contentType": "application/pdf",
                "data": "",
                "title": "PDF protocol"
            }
        ]
    }
}
,{
    "fullUrl": "Organization/81365677998",
    "resource": {
        "resourceType": "Organization",
        "id": "81365677998",
        "meta": {
            "profile": [
                "https://www.ehealth.fgov.be/standards/fhir/core/StructureDefinition/be-organization"
            ]
        },
        "text": {
            "status": "generated",
            "div": "<div xmlns=\"http://www.w3.org/1999/xhtml\"><p><b>identifier: </b>81365677998</p><p><b>name: </b>CENTRUM VOOR MEDISCHE ANALYSE</p><p><b>contact: </b>014/28.50.00</p><p><b>address: </b>Oud-Strijderslaan 199 2200 Herentals BE</p></div>"
        },
        "identifier": [
            {
                "use": "official",
                "type": {
                    "coding": [
                        {
                            "system": "http://terminology.hl7.org/CodeSystem/v2-0203",
                            "code": "MD",
                            "display": "Medical License number"
                        }
                    ]
                },
                "system": "https://www.ehealth.fgov.be/standards/fhir/core/NamingSystem/nihdi",
                "value": "81365677998"
            },
            {
                "use": "official",
                "system": "https://economie.fgov.be/belac",
                "value": "007-MED"
            }
        ],
        "active": true,
        "type": [
            {
                "coding": [
                    {
                        "system": "https://www.ehealth.fgov.be/standards/fhir/core/CodeSystem/cd-hcparty",
                        "code": "orglaboratory"
                    }
                ]
            }
        ],
        "name": "CENTRUM VOOR MEDISCHE ANALYSE",
        "telecom": [
            {
                "system": "phone",
                "value": "014/28.50.00",
                "use": "work"
            },
            {
                "system": "fax",
                "value": "014/22.56.08",
                "use": "work"
            },
            {
                "system": "email",
                "value": "info@cma.be",
                "use": "work"
            },
            {
                "system": "url",
                "value": "http://www.cma.be",
                "use": "work"
            }
        ],
        "address": [
            {
                "use": "work",
                "type": "both",
                "line": [
                    "Oud-Strijderslaan 199"
                ],
                "city": "Herentals",
                "postalCode": "2200",
                "country": "BE"
            }
        ]
    }
}
,{
    "fullUrl": "Practitioner/69",
    "resource": {
        "resourceType": "Practitioner",
        "id": "69",
        "meta": {
            "profile": [
                "https://www.ehealth.fgov.be/standards/fhir/core/StructureDefinition/be-practitioner"
            ]
        },
        "text": {
            "status": "generated",
            "div": "<div xmlns=\"http://www.w3.org/1999/xhtml\"><p><b>identifier: </b>10000007999</p><p><b>name: </b>Cma - Herentals Fhir</p><p><b>contact: </b>info@cma.be</p><p><b>address: </b>Oud-Strijderslaan 199 2200 Herentals BE</p></div>"
        },
        "identifier": [
            {
                "use": "official",
                "system": "https://www.ehealth.fgov.be/standards/fhir/core/NamingSystem/nihdi",
                "value": "10000007999"
            }
        ],
        "name": [
            {
                "use": "official",
                "family": "Cma - Herentals",
                "given": [
                    "Fhir"
                ],
                "prefix": [
                    "Dr."
                ]
            }
        ],
        "telecom": [
            {
                "system": "email",
                "value": "info@cma.be",
                "use": "work"
            },
            {
                "system": "fax",
                "value": "(+32)14/225608",
                "use": "work"
            },
            {
                "system": "phone",
                "value": "(+32)14/285000",
                "use": "work"
            }
        ],
        "address": [
            {
                "use": "work",
                "type": "both",
                "line": [
                    "Oud-Strijderslaan 199"
                ],
                "city": "Herentals",
                "postalCode": "2200",
                "country": "BE"
            }
        ],
        "gender": "unknown"
    }
}
,{
    "fullUrl": "Practitioner/Responsible",
    "resource": {
        "resourceType": "Practitioner",
        "id": "Responsible",
        "meta": {
            "profile": [
                "https://www.ehealth.fgov.be/standards/fhir/core/StructureDefinition/be-practitioner"
            ]
        },
        "text": {
            "status": "generated",
            "div": "<div xmlns=\"http://www.w3.org/1999/xhtml\"><p><b>identifier: </b>68071432800</p><p><b>name: </b>Engelen Frans</p><p><b>contact: </b>014/28.50.00</p><p><b>address: </b>Oud-Strijderslaan 199 2200 Herentals BE</p></div>"
        },
        "identifier": [
            {
                "use": "official",
                "system": "https://www.ehealth.fgov.be/standards/fhir/core/NamingSystem/nihdi",
                "value": "68071432800"
            }
        ],
        "name": [
            {
                "use": "official",
                "family": "Engelen",
                "given": [
                    "Frans"
                ]
            }
        ],
        "telecom": [
            {
                "system": "phone",
                "value": "014/28.50.00",
                "use": "work"
            }
        ],
        "address": [
            {
                "use": "work",
                "type": "both",
                "line": [
                    "Oud-Strijderslaan 199"
                ],
                "city": "Herentals",
                "postalCode": "2200",
                "country": "BE"
            }
        ],
        "gender": "unknown"
    }
}
,{
    "fullUrl": "Patient/7167869",
    "resource": {
        "resourceType": "Patient",
        "id": "7167869",
        "meta": {
            "profile": [
                "https://www.ehealth.fgov.be/standards/fhir/core/StructureDefinition/be-patient"
            ]
        },
        "text": {
            "status": "generated",
            "div": "<div xmlns=\"http://www.w3.org/1999/xhtml\"><p><b>identifier: </b>81365677998-716</p><p><b>name: </b>Lastname Firstname Unknown</p><p><b>gender: </b>other</p><p><b>birthDate: </b>0001-01-01</p><p><b>address: </b>Oud-Strijderslaan 199 2200 Herentals BE</p></div>"
        },
        "identifier": [
            {
                "use": "usual",
                "system": "https://www.macsys.be/hl7/Patient",
                "value": "81365677998-716"
            }
        ],
        "active": true,
        "name": [
            {
                "use": "official",
                "family": "Lastname",
                "given": [
                    "Firstname Unknown"
                ]
            }
        ],
        "address": [
            {
                "use": "home",
                "type": "both",
                "line": [
                    "Oud-Strijderslaan 199"
                ],
                "city": "Herentals",
                "postalCode": "2200",
                "country": "BE"
            }
        ],
        "gender": "other",
        "birthDate": "0001-01-01"
    }
}
,{
    "fullUrl": "ServiceRequest/815333055",
    "resource": {
        "resourceType": "ServiceRequest",
        "id": "815333055",
        "text": {
            "status": "generated",
            "div": "<div xmlns=\"http://www.w3.org/1999/xhtml\"><p><b>id: </b>815333055</p><p><b>intent: </b>order</p><p><b>status: </b>completed</p><p><b>category: </b>http://snomed.info/sct 108252007 Laboratory procedure</p><p><b>subject: </b>Patient/7167869</p><p><b>requester: </b>Practitioner/69</p><p><b>authoredOn: </b>2021-12-17T11:47:00+01:00</p></div>"
        },
        "identifier": [
            {
                "system": "http://www.macsys.be/hl7/ServiceRequest",
                "value": "815333055"
            }
        ],
        "status": "completed",
        "intent": "order",
        "category": [
            {
                "coding": [
                    {
                        "system": "http://snomed.info/sct",
                        "code": "108252007",
                        "display": "Laboratory procedure"
                    }
                ]
            }
        ],
        "subject": {
            "reference": "Patient/7167869"
        },
        "priority": "routine",
        "authoredOn": "2021-12-17T11:47:00+01:00",
        "requester": {
            "reference": "Practitioner/69"
        },
        "note": [
            {
                "text": "Betreft ontbreken van geboortedatum. Gelieve te noteren dat de eventueel vermelde referentiewaarden deze zijn, die horen bij een vijftigjarige persoon en mogelijk niet passen bij deze patint."
            },
            {
                "text": "Betreft ontbreken van geslacht. Gelieve te noteren dat de eventueel vermelde referentiewaarden de laagste ondergrens en hoogste bovengrens voor man of vrouw vermelden en mogelijk niet passen bij deze patint."
            }
        ]
    }
}
]}