{
    "resourceType": "Bundle",
    "type": "document",
    "timestamp": "2022-01-14T15:20:41Z",
    "identifier": {
        "system": "https://www.ehealth.fgov.be/lab-report/bundle-id",
        "value": "81365677998.815933561.7"
    }
,             "entry":[{
    "fullUrl": "Composition/815933561",
    "resource": {
        "resourceType": "Composition",
        "id": "815933561",
        "meta": {
            "profile": [
                "https://www.ehealth.fgov.be/standards/fhir/lab/StructureDefinition/be-laboratory-report-composition"
            ]
        },
        "text": {
            "status": "empty"
        },
        "identifier": {
            "system": "http://www.macsys.be/hl7/Composition",
            "value": "815933561"
        },
        "status": "final",
        "type": {
            "coding": [
                {
                    "system": "http://loinc.org",
                    "code": "11502-2"
                }
            ],
            "text": "Laboratory report"
        },
        "subject": {
            "reference": "Patient/7165401"
        },
        "date": "2022-01-14T15:20:41+01:00",
        "author": [
            {
                "reference": "Practitioner/Responsible"
            }
        ],
        "title": "Laboratory Report",
        "section": [
            {
                "entry": [
                    {
                        "reference": "DiagnosticReport/815933561"
                    }
                ]
            }
        ]
    }
}
,{
    "fullUrl": "Specimen/001815933561",
    "resource": {
        "resourceType": "Specimen",
        "id": "001815933561",
        "meta": {
            "profile": [
                "https://www.ehealth.fgov.be/standards/fhir/StructureDefinition/be-specimen-laboratory"
            ]
        },
        "text": {
            "status": "empty"
        },
        "identifier": [
            {
                "system": "http://www.macsys.be/hl7/Specimen",
                "value": "001815933561"
            }
        ],
        "status": "available",
        "type": {
            "coding": [
                {
                    "system": "http://terminology.hl7.org/CodeSystem/v2-0487",
                    "code": "UR",
                    "display": "Urine"
                }
            ],
            "text": "Urine"
        },
        "subject": {
            "reference": "Patient/7165401"
        },
        "receivedTime": "2022-01-07T15:18:22+01:00",
        "collection": {
            "collectedDateTime": "2022-01-07T00:00:00+01:00",
            "collector": {
                "reference": "Practitioner/69"
            }
        }
    }
}
,{
    "fullUrl": "Observation/Observation.1.0.0.0",
    "resource": {
        "resourceType": "Observation",
        "id": "Observation.1.0.0.0",
        "meta": {
            "profile": [
                "https://www.ehealth.fgov.be/standards/fhir/StructureDefinition/be-observation-laboratory"
            ]
        },
        "text": {
            "status": "empty"
        },
        "status": "final",
        "code": {
            "text": "MICROBIOLOGIE URINE"
        },
        "subject": {
            "reference": "Patient/7165401"
        },
        "effectiveDateTime": "2022-01-07T00:00:00+01:00",
        "performer": [
            {
                "reference": "Practitioner/Responsible"
            }
        ],
        "hasMember": [
            {
                "reference": "Observation/Observation.1.0.0.1"
            },
            {
                "reference": "Observation/Observation.1.0.0.2"
            },
            {
                "reference": "Observation/Observation.1.0.0.3"
            },
            {
                "reference": "Observation/Observation.1.0.0.4"
            },
            {
                "reference": "Observation/Observation.1.0.0.5"
            },
            {
                "reference": "Observation/Observation.1.0.0.6"
            },
            {
                "reference": "Observation/Observation.1.0.0.7"
            }
        ]
    }
}
,{
    "fullUrl": "Observation/Observation.1.0.0.1",
    "resource": {
        "resourceType": "Observation",
        "id": "Observation.1.0.0.1",
        "meta": {
            "profile": [
                "https://www.ehealth.fgov.be/standards/fhir/StructureDefinition/be-observation-laboratory"
            ]
        },
        "text": {
            "status": "empty"
        },
        "status": "final",
        "code": {
            "coding": [
                {
                    "system": "http://loinc.org",
                    "code": "30405-5"
                }
            ],
            "text": "Leukocyten"
        },
        "subject": {
            "reference": "Patient/7165401"
        },
        "effectiveDateTime": "2022-01-07T00:00:00+01:00",
        "issued": "2022-01-07T16:43:37+01:00",
        "performer": [
            {
                "reference": "Practitioner/Responsible"
            }
        ],
        "valueQuantity": {
            "value": 1,
            "comparator": "<",
            "unit": "/uL",
            "system": "http://unitsofmeasure.org",
            "code": "/uL"
        },
        "specimen": {
            "reference": "Specimen/001815933561"
        },
        "referenceRange": [
            {
                "high": {
                    "value": 25,
                    "unit": "/uL",
                    "system": "http://unitsofmeasure.org",
                    "code": "/uL"
                }
            }
        ]
    }
}
,{
    "fullUrl": "Observation/Observation.1.0.0.2",
    "resource": {
        "resourceType": "Observation",
        "id": "Observation.1.0.0.2",
        "meta": {
            "profile": [
                "https://www.ehealth.fgov.be/standards/fhir/StructureDefinition/be-observation-laboratory"
            ]
        },
        "text": {
            "status": "empty"
        },
        "status": "final",
        "code": {
            "coding": [
                {
                    "system": "http://loinc.org",
                    "code": "30391-7"
                }
            ],
            "text": "Erytrocyten"
        },
        "subject": {
            "reference": "Patient/7165401"
        },
        "effectiveDateTime": "2022-01-07T00:00:00+01:00",
        "issued": "2022-01-07T16:43:39+01:00",
        "performer": [
            {
                "reference": "Practitioner/Responsible"
            }
        ],
        "valueQuantity": {
            "value": 1,
            "comparator": "<",
            "unit": "/uL",
            "system": "http://unitsofmeasure.org",
            "code": "/uL"
        },
        "specimen": {
            "reference": "Specimen/001815933561"
        },
        "referenceRange": [
            {
                "high": {
                    "value": 20,
                    "unit": "/uL",
                    "system": "http://unitsofmeasure.org",
                    "code": "/uL"
                }
            }
        ]
    }
}
,{
    "fullUrl": "Observation/Observation.1.0.0.3",
    "resource": {
        "resourceType": "Observation",
        "id": "Observation.1.0.0.3",
        "meta": {
            "profile": [
                "https://www.ehealth.fgov.be/standards/fhir/StructureDefinition/be-observation-laboratory"
            ]
        },
        "text": {
            "status": "empty"
        },
        "status": "final",
        "code": {
            "coding": [
                {
                    "system": "http://loinc.org",
                    "code": "11279-7"
                }
            ],
            "text": "Microscopie"
        },
        "subject": {
            "reference": "Patient/7165401"
        },
        "effectiveDateTime": "2022-01-07T00:00:00+01:00",
        "issued": "2022-01-07T16:44:26+01:00",
        "performer": [
            {
                "reference": "Practitioner/Responsible"
            }
        ],
        "valueString": "Squameus epitheel 1+",
        "specimen": {
            "reference": "Specimen/001815933561"
        }
    }
}
,{
    "fullUrl": "Observation/Observation.1.0.0.4",
    "resource": {
        "resourceType": "Observation",
        "id": "Observation.1.0.0.4",
        "meta": {
            "profile": [
                "https://www.ehealth.fgov.be/standards/fhir/StructureDefinition/be-observation-laboratory"
            ]
        },
        "text": {
            "status": "empty"
        },
        "status": "final",
        "code": {
            "coding": [
                {
                    "system": "http://loinc.org",
                    "code": "630-4"
                }
            ],
            "text": "Cultuur"
        },
        "subject": {
            "reference": "Patient/7165401"
        },
        "effectiveDateTime": "2022-01-07T00:00:00+01:00",
        "issued": "2022-01-07T16:46:22+01:00",
        "performer": [
            {
                "reference": "Practitioner/Responsible"
            }
        ],
        "valueString": "Negatief (geen groei)",
        "specimen": {
            "reference": "Specimen/001815933561"
        }
    }
}
,{
    "fullUrl": "Observation/Observation.1.0.0.5",
    "resource": {
        "resourceType": "Observation",
        "id": "Observation.1.0.0.5",
        "meta": {
            "profile": [
                "https://www.ehealth.fgov.be/standards/fhir/StructureDefinition/be-observation-laboratory"
            ]
        },
        "text": {
            "status": "empty"
        },
        "status": "final",
        "code": {
            "coding": [
                {
                    "system": "http://loinc.org",
                    "code": "29576-6"
                }
            ],
            "text": "Antibiogram"
        },
        "subject": {
            "reference": "Patient/7165401"
        },
        "effectiveDateTime": "2022-01-07T00:00:00+01:00",
        "issued": "2022-01-07T16:46:22+01:00",
        "performer": [
            {
                "reference": "Practitioner/Responsible"
            }
        ],
        "valueString": "Niet uitgevoerd",
        "specimen": {
            "reference": "Specimen/001815933561"
        }
    }
}
,{
    "fullUrl": "Observation/Observation.1.0.0.6",
    "resource": {
        "resourceType": "Observation",
        "id": "Observation.1.0.0.6",
        "meta": {
            "profile": [
                "https://www.ehealth.fgov.be/standards/fhir/StructureDefinition/be-observation-laboratory"
            ]
        },
        "text": {
            "status": "empty"
        },
        "status": "final",
        "code": {
            "coding": [
                {
                    "system": "http://loinc.org",
                    "code": "6357-8"
                }
            ],
            "text": "C. trachomatis DNA (PCR)"
        },
        "subject": {
            "reference": "Patient/7165401"
        },
        "effectiveDateTime": "2022-01-07T00:00:00+01:00",
        "issued": "2022-01-07T16:49:31+01:00",
        "performer": [
            {
                "reference": "Practitioner/Responsible"
            }
        ],
        "valueString": "Positief",
        "interpretation": [
            {
                "coding": [
                    {
                        "system": "http://terminology.hl7.org/CodeSystem/v3-ObservationInterpretation",
                        "code": "H"
                    }
                ]
            }
        ],
        "note": [
            {
                "text": "Behandeling:\r\nCervicale en/of urethrale infectie: 1 g azithro-\r\nmycine eenmalig.\r\nAlternatief: doxycycline 2 x 100 mg/dag gedurende\r\n7 dagen."
            }
        ],
        "specimen": {
            "reference": "Specimen/001815933561"
        }
    }
}
,{
    "fullUrl": "Observation/Observation.1.0.0.7",
    "resource": {
        "resourceType": "Observation",
        "id": "Observation.1.0.0.7",
        "meta": {
            "profile": [
                "https://www.ehealth.fgov.be/standards/fhir/StructureDefinition/be-observation-laboratory"
            ]
        },
        "text": {
            "status": "empty"
        },
        "status": "final",
        "code": {
            "coding": [
                {
                    "system": "http://loinc.org",
                    "code": "21416-3"
                }
            ],
            "text": "N. gonorrhoeae DNA (PCR)"
        },
        "subject": {
            "reference": "Patient/7165401"
        },
        "effectiveDateTime": "2022-01-07T00:00:00+01:00",
        "issued": "2022-01-07T16:48:19+01:00",
        "performer": [
            {
                "reference": "Practitioner/Responsible"
            }
        ],
        "valueString": "Niet gedetecteerd",
        "specimen": {
            "reference": "Specimen/001815933561"
        }
    }
}
,{
    "fullUrl": "DiagnosticReport/815933561",
    "resource": {
        "resourceType": "DiagnosticReport",
        "id": "815933561",
        "meta": {
            "versionId": "7",
            "profile": [
                "https://www.ehealth.fgov.be/standards/fhir/lab/StructureDefinition/be-laboratory-report"
            ]
        },
        "language": "nl",
        "text": {
            "status": "empty"
        },
        "identifier": [
            {
                "system": "https://www.ehealth.fgov.be/lab-report/diagnostic-report-id",
                "value": "81365677998.815933561"
            }
        ],
        "basedOn": [
            {
                "reference": "ServiceRequest/815933561"
            }
        ],
        "status": "final",
        "category": [
            {
                "coding": [
                    {
                        "system": "http://terminology.hl7.org/CodeSystem/v2-0074",
                        "code": "LAB",
                        "display": "Laboratory"
                    }
                ]
            }
        ],
        "code": {
            "coding": [
                {
                    "system": "http://loinc.org",
                    "code": "11502-2",
                    "display": "Laboratory report"
                }
            ]
        },
        "subject": {
            "reference": "Patient/7165401"
        },
        "effectiveDateTime": "2022-01-07T00:00:00+01:00",
        "issued": "2022-01-14T15:20:41+01:00",
        "performer": [
            {
                "reference": "Organization/81365677998"
            }
        ],
        "resultsInterpreter": [
            {
                "reference": "Practitioner/Responsible"
            }
        ],
        "specimen": [
            {
                "reference": "Specimen/001815933561"
            }
        ],
        "result": [
            {
                "reference": "Observation/Observation.1.0.0.0"
            }
        ]
    }
}
,{
    "fullUrl": "Organization/81365677998",
    "resource": {
        "resourceType": "Organization",
        "id": "81365677998",
        "meta": {
            "profile": [
                "https://www.ehealth.fgov.be/standards/fhir/core/StructureDefinition/be-organization"
            ]
        },
        "text": {
            "status": "empty"
        },
        "identifier": [
            {
                "use": "official",
                "type": {
                    "coding": [
                        {
                            "system": "http://terminology.hl7.org/CodeSystem/v2-0203",
                            "code": "MD",
                            "display": "Medical License number"
                        }
                    ]
                },
                "system": "https://www.ehealth.fgov.be/standards/fhir/NamingSystem/nihdi",
                "value": "81365677998"
            },
            {
                "use": "official",
                "system": "https://economie.fgov.be/belac",
                "value": "007-MED"
            }
        ],
        "active": true,
        "type": [
            {
                "coding": [
                    {
                        "system": "https://www.ehealth.fgov.be/standards/fhir/CodeSystem/cd-hcparty",
                        "code": "orglaboratory"
                    }
                ]
            }
        ],
        "name": "CENTRUM VOOR MEDISCHE ANALYSE",
        "telecom": [
            {
                "system": "phone",
                "value": "014/28.50.00",
                "use": "work"
            },
            {
                "system": "fax",
                "value": "014/22.56.08",
                "use": "work"
            },
            {
                "system": "email",
                "value": "info@cma.be",
                "use": "work"
            },
            {
                "system": "url",
                "value": "http://www.cma.be",
                "use": "work"
            }
        ],
        "address": [
            {
                "use": "work",
                "type": "both",
                "line": [
                    "Oud-Strijderslaan 199"
                ],
                "city": "Herentals",
                "postalCode": "2200",
                "country": "BE"
            }
        ]
    }
}
,{
    "fullUrl": "Practitioner/69",
    "resource": {
        "resourceType": "Practitioner",
        "id": "69",
        "meta": {
            "profile": [
                "https://www.ehealth.fgov.be/standards/fhir/core/StructureDefinition/be-practitioner"
            ]
        },
        "text": {
            "status": "empty"
        },
        "identifier": [
            {
                "use": "official",
                "system": "https://www.ehealth.fgov.be/standards/fhir/NamingSystem/nihdi",
                "value": "10000007999"
            }
        ],
        "name": [
            {
                "use": "official",
                "family": "Cma - Herentals",
                "given": [
                    "Fhir"
                ],
                "prefix": [
                    "Dr."
                ]
            }
        ],
        "telecom": [
            {
                "system": "email",
                "value": "info@cma.be",
                "use": "work"
            },
            {
                "system": "fax",
                "value": "(+32)14/225608",
                "use": "work"
            },
            {
                "system": "phone",
                "value": "(+32)14/285000",
                "use": "work"
            }
        ],
        "address": [
            {
                "use": "work",
                "type": "both",
                "line": [
                    "Oud-Strijderslaan 199"
                ],
                "city": "Herentals",
                "postalCode": "2200",
                "country": "BE"
            }
        ],
        "gender": "unknown"
    }
}
,{
    "fullUrl": "Practitioner/Responsible",
    "resource": {
        "resourceType": "Practitioner",
        "id": "Responsible",
        "meta": {
            "profile": [
                "https://www.ehealth.fgov.be/standards/fhir/core/StructureDefinition/be-practitioner"
            ]
        },
        "text": {
            "status": "empty"
        },
        "identifier": [
            {
                "use": "official",
                "system": "https://www.ehealth.fgov.be/standards/fhir/NamingSystem/nihdi",
                "value": "68071432800"
            }
        ],
        "name": [
            {
                "use": "official",
                "family": "Engelen",
                "given": [
                    "Frans"
                ]
            }
        ],
        "telecom": [
            {
                "system": "phone",
                "value": "014/28.50.00",
                "use": "work"
            }
        ],
        "address": [
            {
                "use": "work",
                "type": "both",
                "line": [
                    "Oud-Strijderslaan 199"
                ],
                "city": "Herentals",
                "postalCode": "2200",
                "country": "BE"
            }
        ],
        "gender": "unknown"
    }
}
,{
    "fullUrl": "Patient/7165401",
    "resource": {
        "resourceType": "Patient",
        "id": "7165401",
        "meta": {
            "profile": [
                "https://www.ehealth.fgov.be/standards/fhir/core/StructureDefinition/be-patient"
            ]
        },
        "text": {
            "status": "empty"
        },
        "identifier": [
            {
                "use": "official",
                "system": "https://www.ehealth.fgov.be/standards/fhir/NamingSystem/ssin",
                "value": "40010199813"
            }
        ],
        "active": true,
        "name": [
            {
                "use": "official",
                "family": "Lastname",
                "given": [
                    "Firstname Old"
                ]
            }
        ],
        "gender": "female",
        "birthDate": "1940-01-01"
    }
}
,{
    "fullUrl": "ServiceRequest/815933561",
    "resource": {
        "resourceType": "ServiceRequest",
        "id": "815933561",
        "text": {
            "status": "empty"
        },
        "identifier": [
            {
                "system": "http://www.macsys.be/hl7/ServiceRequest",
                "value": "815933561"
            }
        ],
        "status": "completed",
        "intent": "order",
        "category": [
            {
                "coding": [
                    {
                        "system": "http://snomed.info/sct",
                        "code": "108252007",
                        "display": "Laboratory procedure"
                    }
                ]
            }
        ],
        "subject": {
            "reference": "Patient/7165401"
        },
        "priority": "routine",
        "authoredOn": "2022-01-07T15:18:00+01:00",
        "requester": {
            "reference": "Practitioner/69"
        }
    }
}
]}