{
    "resourceType": "Bundle",
    "type": "document",
    "timestamp": "2022-01-17T11:37:51Z",
    "identifier": {
        "system": "https://www.ehealth.fgov.be/lab-report/bundle-id",
        "value": "81365677998.815933574.3"
    }
,             "entry":[{
    "fullUrl": "Composition/815933574",
    "resource": {
        "resourceType": "Composition",
        "id": "815933574",
        "meta": {
            "profile": [
                "https://www.ehealth.fgov.be/standards/fhir/lab/StructureDefinition/be-laboratory-report-composition"
            ]
        },
        "text": {
            "status": "empty"
        },
        "identifier": {
            "system": "http://www.macsys.be/hl7/Composition",
            "value": "815933574"
        },
        "status": "final",
        "type": {
            "coding": [
                {
                    "system": "http://loinc.org",
                    "code": "11502-2"
                }
            ],
            "text": "Laboratory report"
        },
        "subject": {
            "reference": "Patient/7165401"
        },
        "date": "2022-01-17T11:37:51+01:00",
        "author": [
            {
                "reference": "Practitioner/Responsible"
            }
        ],
        "title": "Laboratory Report",
        "section": [
            {
                "entry": [
                    {
                        "reference": "DiagnosticReport/815933574"
                    }
                ]
            }
        ]
    }
}
,{
    "fullUrl": "Specimen/005815933574",
    "resource": {
        "resourceType": "Specimen",
        "id": "005815933574",
        "meta": {
            "profile": [
                "https://www.ehealth.fgov.be/standards/fhir/lab/StructureDefinition/be-specimen-laboratory"
            ]
        },
        "text": {
            "status": "empty"
        },
        "identifier": [
            {
                "system": "http://www.macsys.be/hl7/Specimen",
                "value": "005815933574"
            }
        ],
        "status": "available",
        "type": {
            "coding": [
                {
                    "system": "http://terminology.hl7.org/CodeSystem/v2-0487",
                    "code": "PUS",
                    "display": "Pus"
                }
            ],
            "text": "Keel"
        },
        "subject": {
            "reference": "Patient/7165401"
        },
        "receivedTime": "2022-01-07T15:37:12+01:00",
        "collection": {
            "collectedDateTime": "2022-01-07T00:00:00+01:00",
            "collector": {
                "reference": "Practitioner/69"
            }
        }
    }
}
,{
    "fullUrl": "Specimen/004815933574",
    "resource": {
        "resourceType": "Specimen",
        "id": "004815933574",
        "meta": {
            "profile": [
                "https://www.ehealth.fgov.be/standards/fhir/lab/StructureDefinition/be-specimen-laboratory"
            ]
        },
        "text": {
            "status": "empty"
        },
        "identifier": [
            {
                "system": "http://www.macsys.be/hl7/Specimen",
                "value": "004815933574"
            }
        ],
        "status": "available",
        "type": {
            "coding": [
                {
                    "system": "http://terminology.hl7.org/CodeSystem/v2-0487",
                    "code": "PUS",
                    "display": "Pus"
                }
            ],
            "text": "Etter"
        },
        "subject": {
            "reference": "Patient/7165401"
        },
        "receivedTime": "2022-01-07T15:37:12+01:00",
        "collection": {
            "collectedDateTime": "2022-01-07T00:00:00+01:00",
            "collector": {
                "reference": "Practitioner/69"
            }
        }
    }
}
,{
    "fullUrl": "Observation/Observation.1.0.0.0",
    "resource": {
        "resourceType": "Observation",
        "id": "Observation.1.0.0.0",
        "meta": {
            "profile": [
                "https://www.ehealth.fgov.be/standards/fhir/lab/StructureDefinition/be-observation-laboratory"
            ]
        },
        "text": {
            "status": "empty"
        },
        "status": "final",
        "code": {
            "text": "KEEL"
        },
        "subject": {
            "reference": "Patient/7165401"
        },
        "effectiveDateTime": "2022-01-07T00:00:00+01:00",
        "performer": [
            {
                "reference": "Practitioner/Responsible"
            }
        ],
        "hasMember": [
            {
                "reference": "Observation/Observation.1.0.0.1"
            },
            {
                "reference": "Observation/Observation.1.0.0.2"
            }
        ]
    }
}
,{
    "fullUrl": "Observation/Observation.1.0.0.1",
    "resource": {
        "resourceType": "Observation",
        "id": "Observation.1.0.0.1",
        "meta": {
            "profile": [
                "https://www.ehealth.fgov.be/standards/fhir/lab/StructureDefinition/be-observation-laboratory"
            ]
        },
        "text": {
            "status": "empty"
        },
        "status": "final",
        "code": {
            "coding": [
                {
                    "system": "http://loinc.org",
                    "code": "626-2"
                }
            ],
            "text": "Cultuur"
        },
        "subject": {
            "reference": "Patient/7165401"
        },
        "effectiveDateTime": "2022-01-07T00:00:00+01:00",
        "issued": "2022-01-07T17:47:10+01:00",
        "performer": [
            {
                "reference": "Practitioner/Responsible"
            }
        ],
        "valueString": "1. Streptococcus pyogenes",
        "specimen": {
            "reference": "Specimen/005815933574"
        }
    }
}
,{
    "fullUrl": "Observation/Observation.1.0.0.2",
    "resource": {
        "resourceType": "Observation",
        "id": "Observation.1.0.0.2",
        "meta": {
            "profile": [
                "https://www.ehealth.fgov.be/standards/fhir/lab/StructureDefinition/be-observation-laboratory"
            ]
        },
        "text": {
            "status": "empty"
        },
        "status": "final",
        "code": {
            "coding": [
                {
                    "system": "http://www.macsys.be/hl7/testcode",
                    "code": "MED16935"
                }
            ],
            "text": "Antibiogram"
        },
        "subject": {
            "reference": "Patient/7165401"
        },
        "effectiveDateTime": "2022-01-07T00:00:00+01:00",
        "issued": "2022-01-07T17:47:10+01:00",
        "performer": [
            {
                "reference": "Practitioner/Responsible"
            }
        ],
        "specimen": {
            "reference": "Specimen/005815933574"
        },
        "hasMember": [
            {
                "reference": "Observation/Observation.1.0.0.2.1"
            }
        ]
    }
}
,{
    "fullUrl": "Observation/Observation.1.0.0.2.1",
    "resource": {
        "resourceType": "Observation",
        "id": "Observation.1.0.0.2.1",
        "meta": {
            "profile": [
                "https://www.ehealth.fgov.be/standards/fhir/lab/StructureDefinition/be-observation-laboratory"
            ]
        },
        "text": {
            "status": "empty"
        },
        "status": "final",
        "code": {
            "coding": [
                {
                    "system": "http://loinc.org",
                    "code": "626-2"
                }
            ],
            "text": "-"
        },
        "subject": {
            "reference": "Patient/7165401"
        },
        "effectiveDateTime": "2022-01-07T00:00:00+01:00",
        "issued": "2022-01-07T17:47:10+01:00",
        "performer": [
            {
                "reference": "Practitioner/Responsible"
            }
        ],
        "valueString": "Streptococcus pyogenes",
        "specimen": {
            "reference": "Specimen/005815933574"
        },
        "hasMember": [
            {
                "reference": "Observation/Observation.1.0.0.2.1.1"
            },
            {
                "reference": "Observation/Observation.1.0.0.2.1.2"
            },
            {
                "reference": "Observation/Observation.1.0.0.2.1.3"
            },
            {
                "reference": "Observation/Observation.1.0.0.2.1.4"
            },
            {
                "reference": "Observation/Observation.1.0.0.2.1.5"
            },
            {
                "reference": "Observation/Observation.1.0.0.2.1.6"
            }
        ]
    }
}
,{
    "fullUrl": "Observation/Observation.1.0.0.2.1.1",
    "resource": {
        "resourceType": "Observation",
        "id": "Observation.1.0.0.2.1.1",
        "meta": {
            "profile": [
                "https://www.ehealth.fgov.be/standards/fhir/lab/StructureDefinition/be-observation-laboratory"
            ]
        },
        "text": {
            "status": "empty"
        },
        "status": "final",
        "code": {
            "coding": [
                {
                    "system": "http://loinc.org",
                    "code": "18861-5"
                }
            ],
            "text": "Amoxicilline"
        },
        "subject": {
            "reference": "Patient/7165401"
        },
        "effectiveDateTime": "2022-01-07T00:00:00+01:00",
        "issued": "2022-01-07T17:47:10+01:00",
        "performer": [
            {
                "reference": "Practitioner/Responsible"
            }
        ],
        "valueString": "S",
        "interpretation": [
            {
                "coding": [
                    {
                        "system": "http://terminology.hl7.org/CodeSystem/v3-ObservationInterpretation",
                        "code": "S"
                    }
                ]
            }
        ],
        "specimen": {
            "reference": "Specimen/005815933574"
        }
    }
}
,{
    "fullUrl": "Observation/Observation.1.0.0.2.1.2",
    "resource": {
        "resourceType": "Observation",
        "id": "Observation.1.0.0.2.1.2",
        "meta": {
            "profile": [
                "https://www.ehealth.fgov.be/standards/fhir/lab/StructureDefinition/be-observation-laboratory"
            ]
        },
        "text": {
            "status": "empty"
        },
        "status": "final",
        "code": {
            "coding": [
                {
                    "system": "http://loinc.org",
                    "code": "18919-1"
                }
            ],
            "text": "Erythromycine"
        },
        "subject": {
            "reference": "Patient/7165401"
        },
        "effectiveDateTime": "2022-01-07T00:00:00+01:00",
        "issued": "2022-01-07T17:47:10+01:00",
        "performer": [
            {
                "reference": "Practitioner/Responsible"
            }
        ],
        "valueString": "R",
        "interpretation": [
            {
                "coding": [
                    {
                        "system": "http://terminology.hl7.org/CodeSystem/v3-ObservationInterpretation",
                        "code": "R"
                    }
                ]
            }
        ],
        "specimen": {
            "reference": "Specimen/005815933574"
        }
    }
}
,{
    "fullUrl": "Observation/Observation.1.0.0.2.1.3",
    "resource": {
        "resourceType": "Observation",
        "id": "Observation.1.0.0.2.1.3",
        "meta": {
            "profile": [
                "https://www.ehealth.fgov.be/standards/fhir/lab/StructureDefinition/be-observation-laboratory"
            ]
        },
        "text": {
            "status": "empty"
        },
        "status": "final",
        "code": {
            "coding": [
                {
                    "system": "http://loinc.org",
                    "code": "18908-4"
                }
            ],
            "text": "Clindamycine"
        },
        "subject": {
            "reference": "Patient/7165401"
        },
        "effectiveDateTime": "2022-01-07T00:00:00+01:00",
        "issued": "2022-01-07T17:47:10+01:00",
        "performer": [
            {
                "reference": "Practitioner/Responsible"
            }
        ],
        "valueString": "S",
        "interpretation": [
            {
                "coding": [
                    {
                        "system": "http://terminology.hl7.org/CodeSystem/v3-ObservationInterpretation",
                        "code": "S"
                    }
                ]
            }
        ],
        "specimen": {
            "reference": "Specimen/005815933574"
        }
    }
}
,{
    "fullUrl": "Observation/Observation.1.0.0.2.1.4",
    "resource": {
        "resourceType": "Observation",
        "id": "Observation.1.0.0.2.1.4",
        "meta": {
            "profile": [
                "https://www.ehealth.fgov.be/standards/fhir/lab/StructureDefinition/be-observation-laboratory"
            ]
        },
        "text": {
            "status": "empty"
        },
        "status": "final",
        "code": {
            "coding": [
                {
                    "system": "http://loinc.org",
                    "code": "18993-6"
                }
            ],
            "text": "Tetracycline"
        },
        "subject": {
            "reference": "Patient/7165401"
        },
        "effectiveDateTime": "2022-01-07T00:00:00+01:00",
        "issued": "2022-01-07T17:47:10+01:00",
        "performer": [
            {
                "reference": "Practitioner/Responsible"
            }
        ],
        "valueString": "R",
        "interpretation": [
            {
                "coding": [
                    {
                        "system": "http://terminology.hl7.org/CodeSystem/v3-ObservationInterpretation",
                        "code": "R"
                    }
                ]
            }
        ],
        "specimen": {
            "reference": "Specimen/005815933574"
        }
    }
}
,{
    "fullUrl": "Observation/Observation.1.0.0.2.1.5",
    "resource": {
        "resourceType": "Observation",
        "id": "Observation.1.0.0.2.1.5",
        "meta": {
            "profile": [
                "https://www.ehealth.fgov.be/standards/fhir/lab/StructureDefinition/be-observation-laboratory"
            ]
        },
        "text": {
            "status": "empty"
        },
        "status": "final",
        "code": {
            "coding": [
                {
                    "system": "http://loinc.org",
                    "code": "20629-2"
                }
            ],
            "text": "Levofloxacine"
        },
        "subject": {
            "reference": "Patient/7165401"
        },
        "effectiveDateTime": "2022-01-07T00:00:00+01:00",
        "issued": "2022-01-07T17:47:10+01:00",
        "performer": [
            {
                "reference": "Practitioner/Responsible"
            }
        ],
        "valueString": "S",
        "interpretation": [
            {
                "coding": [
                    {
                        "system": "http://terminology.hl7.org/CodeSystem/v3-ObservationInterpretation",
                        "code": "S"
                    }
                ]
            }
        ],
        "specimen": {
            "reference": "Specimen/005815933574"
        }
    }
}
,{
    "fullUrl": "Observation/Observation.1.0.0.2.1.6",
    "resource": {
        "resourceType": "Observation",
        "id": "Observation.1.0.0.2.1.6",
        "meta": {
            "profile": [
                "https://www.ehealth.fgov.be/standards/fhir/lab/StructureDefinition/be-observation-laboratory"
            ]
        },
        "text": {
            "status": "empty"
        },
        "status": "final",
        "code": {
            "coding": [
                {
                    "system": "http://loinc.org",
                    "code": "18998-5"
                }
            ],
            "text": "Trimethoprim/Sulfa"
        },
        "subject": {
            "reference": "Patient/7165401"
        },
        "effectiveDateTime": "2022-01-07T00:00:00+01:00",
        "issued": "2022-01-07T17:47:10+01:00",
        "performer": [
            {
                "reference": "Practitioner/Responsible"
            }
        ],
        "valueString": "S",
        "interpretation": [
            {
                "coding": [
                    {
                        "system": "http://terminology.hl7.org/CodeSystem/v3-ObservationInterpretation",
                        "code": "S"
                    }
                ]
            }
        ],
        "specimen": {
            "reference": "Specimen/005815933574"
        }
    }
}
,{
    "fullUrl": "Observation/Observation.2.0.0.0",
    "resource": {
        "resourceType": "Observation",
        "id": "Observation.2.0.0.0",
        "meta": {
            "profile": [
                "https://www.ehealth.fgov.be/standards/fhir/lab/StructureDefinition/be-observation-laboratory"
            ]
        },
        "text": {
            "status": "empty"
        },
        "status": "final",
        "code": {
            "text": "ETTER"
        },
        "subject": {
            "reference": "Patient/7165401"
        },
        "effectiveDateTime": "2022-01-07T00:00:00+01:00",
        "performer": [
            {
                "reference": "Practitioner/Responsible"
            }
        ],
        "hasMember": [
            {
                "reference": "Observation/Observation.2.0.0.1"
            },
            {
                "reference": "Observation/Observation.2.0.0.2"
            },
            {
                "reference": "Observation/Observation.2.0.0.3"
            }
        ]
    }
}
,{
    "fullUrl": "Observation/Observation.2.0.0.1",
    "resource": {
        "resourceType": "Observation",
        "id": "Observation.2.0.0.1",
        "meta": {
            "profile": [
                "https://www.ehealth.fgov.be/standards/fhir/lab/StructureDefinition/be-observation-laboratory"
            ]
        },
        "text": {
            "status": "empty"
        },
        "status": "final",
        "code": {
            "coding": [
                {
                    "system": "http://loinc.org",
                    "code": "39112-8"
                }
            ],
            "text": "Herkomst"
        },
        "subject": {
            "reference": "Patient/7165401"
        },
        "effectiveDateTime": "2022-01-07T00:00:00+01:00",
        "issued": "2022-01-07T15:37:22+01:00",
        "performer": [
            {
                "reference": "Practitioner/Responsible"
            }
        ],
        "valueString": "Furunkel",
        "specimen": {
            "reference": "Specimen/004815933574"
        }
    }
}
,{
    "fullUrl": "Observation/Observation.2.0.0.2",
    "resource": {
        "resourceType": "Observation",
        "id": "Observation.2.0.0.2",
        "meta": {
            "profile": [
                "https://www.ehealth.fgov.be/standards/fhir/lab/StructureDefinition/be-observation-laboratory"
            ]
        },
        "text": {
            "status": "empty"
        },
        "status": "final",
        "code": {
            "coding": [
                {
                    "system": "http://loinc.org",
                    "code": "632-0"
                }
            ],
            "text": "Cultuur"
        },
        "subject": {
            "reference": "Patient/7165401"
        },
        "effectiveDateTime": "2022-01-07T00:00:00+01:00",
        "issued": "2022-01-07T17:49:40+01:00",
        "performer": [
            {
                "reference": "Practitioner/Responsible"
            }
        ],
        "valueString": "1. Staphylococcus aureus 2+\r\n2. Streptococcus dysgalactiae 1+\r\n3. Klebsiella pneumoniae\r\nMengflora 1+",
        "specimen": {
            "reference": "Specimen/004815933574"
        }
    }
}
,{
    "fullUrl": "Observation/Observation.2.0.0.3",
    "resource": {
        "resourceType": "Observation",
        "id": "Observation.2.0.0.3",
        "meta": {
            "profile": [
                "https://www.ehealth.fgov.be/standards/fhir/lab/StructureDefinition/be-observation-laboratory"
            ]
        },
        "text": {
            "status": "empty"
        },
        "status": "final",
        "code": {
            "coding": [
                {
                    "system": "http://loinc.org",
                    "code": "29576-6"
                }
            ],
            "text": "Antibiogram"
        },
        "subject": {
            "reference": "Patient/7165401"
        },
        "effectiveDateTime": "2022-01-07T00:00:00+01:00",
        "issued": "2022-01-07T17:49:33+01:00",
        "performer": [
            {
                "reference": "Practitioner/Responsible"
            }
        ],
        "specimen": {
            "reference": "Specimen/004815933574"
        },
        "hasMember": [
            {
                "reference": "Observation/Observation.2.0.0.3.1"
            },
            {
                "reference": "Observation/Observation.2.0.0.3.2"
            },
            {
                "reference": "Observation/Observation.2.0.0.3.3"
            }
        ]
    }
}
,{
    "fullUrl": "Observation/Observation.2.0.0.3.1",
    "resource": {
        "resourceType": "Observation",
        "id": "Observation.2.0.0.3.1",
        "meta": {
            "profile": [
                "https://www.ehealth.fgov.be/standards/fhir/lab/StructureDefinition/be-observation-laboratory"
            ]
        },
        "text": {
            "status": "empty"
        },
        "status": "final",
        "code": {
            "coding": [
                {
                    "system": "http://loinc.org",
                    "code": "632-0"
                }
            ],
            "text": "-"
        },
        "subject": {
            "reference": "Patient/7165401"
        },
        "effectiveDateTime": "2022-01-07T00:00:00+01:00",
        "issued": "2022-01-07T17:49:33+01:00",
        "performer": [
            {
                "reference": "Practitioner/Responsible"
            }
        ],
        "valueString": "Staphylococcus aureus",
        "specimen": {
            "reference": "Specimen/004815933574"
        },
        "hasMember": [
            {
                "reference": "Observation/Observation.2.0.0.3.1.1"
            },
            {
                "reference": "Observation/Observation.2.0.0.3.1.2"
            },
            {
                "reference": "Observation/Observation.2.0.0.3.1.3"
            },
            {
                "reference": "Observation/Observation.2.0.0.3.1.4"
            },
            {
                "reference": "Observation/Observation.2.0.0.3.1.5"
            },
            {
                "reference": "Observation/Observation.2.0.0.3.1.6"
            },
            {
                "reference": "Observation/Observation.2.0.0.3.1.7"
            },
            {
                "reference": "Observation/Observation.2.0.0.3.1.8"
            }
        ]
    }
}
,{
    "fullUrl": "Observation/Observation.2.0.0.3.1.1",
    "resource": {
        "resourceType": "Observation",
        "id": "Observation.2.0.0.3.1.1",
        "meta": {
            "profile": [
                "https://www.ehealth.fgov.be/standards/fhir/lab/StructureDefinition/be-observation-laboratory"
            ]
        },
        "text": {
            "status": "empty"
        },
        "status": "final",
        "code": {
            "coding": [
                {
                    "system": "http://loinc.org",
                    "code": "18861-5"
                }
            ],
            "text": "Amoxicilline"
        },
        "subject": {
            "reference": "Patient/7165401"
        },
        "effectiveDateTime": "2022-01-07T00:00:00+01:00",
        "issued": "2022-01-07T17:49:33+01:00",
        "performer": [
            {
                "reference": "Practitioner/Responsible"
            }
        ],
        "valueString": "R",
        "interpretation": [
            {
                "coding": [
                    {
                        "system": "http://terminology.hl7.org/CodeSystem/v3-ObservationInterpretation",
                        "code": "R"
                    }
                ]
            }
        ],
        "specimen": {
            "reference": "Specimen/004815933574"
        }
    }
}
,{
    "fullUrl": "Observation/Observation.2.0.0.3.1.2",
    "resource": {
        "resourceType": "Observation",
        "id": "Observation.2.0.0.3.1.2",
        "meta": {
            "profile": [
                "https://www.ehealth.fgov.be/standards/fhir/lab/StructureDefinition/be-observation-laboratory"
            ]
        },
        "text": {
            "status": "empty"
        },
        "status": "final",
        "code": {
            "coding": [
                {
                    "system": "http://loinc.org",
                    "code": "18923-3"
                }
            ],
            "text": "Flucloxacilline"
        },
        "subject": {
            "reference": "Patient/7165401"
        },
        "effectiveDateTime": "2022-01-07T00:00:00+01:00",
        "issued": "2022-01-07T17:49:33+01:00",
        "performer": [
            {
                "reference": "Practitioner/Responsible"
            }
        ],
        "valueString": "S",
        "interpretation": [
            {
                "coding": [
                    {
                        "system": "http://terminology.hl7.org/CodeSystem/v3-ObservationInterpretation",
                        "code": "S"
                    }
                ]
            }
        ],
        "specimen": {
            "reference": "Specimen/004815933574"
        }
    }
}
,{
    "fullUrl": "Observation/Observation.2.0.0.3.1.3",
    "resource": {
        "resourceType": "Observation",
        "id": "Observation.2.0.0.3.1.3",
        "meta": {
            "profile": [
                "https://www.ehealth.fgov.be/standards/fhir/lab/StructureDefinition/be-observation-laboratory"
            ]
        },
        "text": {
            "status": "empty"
        },
        "status": "final",
        "code": {
            "coding": [
                {
                    "system": "http://loinc.org",
                    "code": "18919-1"
                }
            ],
            "text": "Erythromycine"
        },
        "subject": {
            "reference": "Patient/7165401"
        },
        "effectiveDateTime": "2022-01-07T00:00:00+01:00",
        "issued": "2022-01-07T17:49:33+01:00",
        "performer": [
            {
                "reference": "Practitioner/Responsible"
            }
        ],
        "valueString": "R",
        "interpretation": [
            {
                "coding": [
                    {
                        "system": "http://terminology.hl7.org/CodeSystem/v3-ObservationInterpretation",
                        "code": "R"
                    }
                ]
            }
        ],
        "specimen": {
            "reference": "Specimen/004815933574"
        }
    }
}
,{
    "fullUrl": "Observation/Observation.2.0.0.3.1.4",
    "resource": {
        "resourceType": "Observation",
        "id": "Observation.2.0.0.3.1.4",
        "meta": {
            "profile": [
                "https://www.ehealth.fgov.be/standards/fhir/lab/StructureDefinition/be-observation-laboratory"
            ]
        },
        "text": {
            "status": "empty"
        },
        "status": "final",
        "code": {
            "coding": [
                {
                    "system": "http://loinc.org",
                    "code": "18908-4"
                }
            ],
            "text": "Clindamycine"
        },
        "subject": {
            "reference": "Patient/7165401"
        },
        "effectiveDateTime": "2022-01-07T00:00:00+01:00",
        "issued": "2022-01-07T17:49:33+01:00",
        "performer": [
            {
                "reference": "Practitioner/Responsible"
            }
        ],
        "valueString": "R",
        "interpretation": [
            {
                "coding": [
                    {
                        "system": "http://terminology.hl7.org/CodeSystem/v3-ObservationInterpretation",
                        "code": "R"
                    }
                ]
            }
        ],
        "specimen": {
            "reference": "Specimen/004815933574"
        }
    }
}
,{
    "fullUrl": "Observation/Observation.2.0.0.3.1.5",
    "resource": {
        "resourceType": "Observation",
        "id": "Observation.2.0.0.3.1.5",
        "meta": {
            "profile": [
                "https://www.ehealth.fgov.be/standards/fhir/lab/StructureDefinition/be-observation-laboratory"
            ]
        },
        "text": {
            "status": "empty"
        },
        "status": "final",
        "code": {
            "coding": [
                {
                    "system": "http://loinc.org",
                    "code": "18993-6"
                }
            ],
            "text": "Tetracycline"
        },
        "subject": {
            "reference": "Patient/7165401"
        },
        "effectiveDateTime": "2022-01-07T00:00:00+01:00",
        "issued": "2022-01-07T17:49:33+01:00",
        "performer": [
            {
                "reference": "Practitioner/Responsible"
            }
        ],
        "valueString": "S",
        "interpretation": [
            {
                "coding": [
                    {
                        "system": "http://terminology.hl7.org/CodeSystem/v3-ObservationInterpretation",
                        "code": "S"
                    }
                ]
            }
        ],
        "specimen": {
            "reference": "Specimen/004815933574"
        }
    }
}
,{
    "fullUrl": "Observation/Observation.2.0.0.3.1.6",
    "resource": {
        "resourceType": "Observation",
        "id": "Observation.2.0.0.3.1.6",
        "meta": {
            "profile": [
                "https://www.ehealth.fgov.be/standards/fhir/lab/StructureDefinition/be-observation-laboratory"
            ]
        },
        "text": {
            "status": "empty"
        },
        "status": "final",
        "code": {
            "coding": [
                {
                    "system": "http://loinc.org",
                    "code": "18928-2"
                }
            ],
            "text": "Gentamicine"
        },
        "subject": {
            "reference": "Patient/7165401"
        },
        "effectiveDateTime": "2022-01-07T00:00:00+01:00",
        "issued": "2022-01-07T17:49:33+01:00",
        "performer": [
            {
                "reference": "Practitioner/Responsible"
            }
        ],
        "valueString": "R",
        "interpretation": [
            {
                "coding": [
                    {
                        "system": "http://terminology.hl7.org/CodeSystem/v3-ObservationInterpretation",
                        "code": "R"
                    }
                ]
            }
        ],
        "specimen": {
            "reference": "Specimen/004815933574"
        }
    }
}
,{
    "fullUrl": "Observation/Observation.2.0.0.3.1.7",
    "resource": {
        "resourceType": "Observation",
        "id": "Observation.2.0.0.3.1.7",
        "meta": {
            "profile": [
                "https://www.ehealth.fgov.be/standards/fhir/lab/StructureDefinition/be-observation-laboratory"
            ]
        },
        "text": {
            "status": "empty"
        },
        "status": "final",
        "code": {
            "coding": [
                {
                    "system": "http://loinc.org",
                    "code": "18998-5"
                }
            ],
            "text": "Trimethoprim/Sulfa"
        },
        "subject": {
            "reference": "Patient/7165401"
        },
        "effectiveDateTime": "2022-01-07T00:00:00+01:00",
        "issued": "2022-01-07T17:49:33+01:00",
        "performer": [
            {
                "reference": "Practitioner/Responsible"
            }
        ],
        "valueString": "S",
        "interpretation": [
            {
                "coding": [
                    {
                        "system": "http://terminology.hl7.org/CodeSystem/v3-ObservationInterpretation",
                        "code": "S"
                    }
                ]
            }
        ],
        "specimen": {
            "reference": "Specimen/004815933574"
        }
    }
}
,{
    "fullUrl": "Observation/Observation.2.0.0.3.1.8",
    "resource": {
        "resourceType": "Observation",
        "id": "Observation.2.0.0.3.1.8",
        "meta": {
            "profile": [
                "https://www.ehealth.fgov.be/standards/fhir/lab/StructureDefinition/be-observation-laboratory"
            ]
        },
        "text": {
            "status": "empty"
        },
        "status": "final",
        "code": {
            "coding": [
                {
                    "system": "http://loinc.org",
                    "code": "18927-4"
                }
            ],
            "text": "Fusidinezuur"
        },
        "subject": {
            "reference": "Patient/7165401"
        },
        "effectiveDateTime": "2022-01-07T00:00:00+01:00",
        "issued": "2022-01-07T17:49:33+01:00",
        "performer": [
            {
                "reference": "Practitioner/Responsible"
            }
        ],
        "valueString": "S",
        "interpretation": [
            {
                "coding": [
                    {
                        "system": "http://terminology.hl7.org/CodeSystem/v3-ObservationInterpretation",
                        "code": "S"
                    }
                ]
            }
        ],
        "specimen": {
            "reference": "Specimen/004815933574"
        }
    }
}
,{
    "fullUrl": "Observation/Observation.2.0.0.3.2",
    "resource": {
        "resourceType": "Observation",
        "id": "Observation.2.0.0.3.2",
        "meta": {
            "profile": [
                "https://www.ehealth.fgov.be/standards/fhir/lab/StructureDefinition/be-observation-laboratory"
            ]
        },
        "text": {
            "status": "empty"
        },
        "status": "final",
        "code": {
            "coding": [
                {
                    "system": "http://loinc.org",
                    "code": "632-0"
                }
            ],
            "text": "-"
        },
        "subject": {
            "reference": "Patient/7165401"
        },
        "effectiveDateTime": "2022-01-07T00:00:00+01:00",
        "issued": "2022-01-07T17:49:33+01:00",
        "performer": [
            {
                "reference": "Practitioner/Responsible"
            }
        ],
        "valueString": "Streptococcus dysgalactiae",
        "specimen": {
            "reference": "Specimen/004815933574"
        },
        "hasMember": [
            {
                "reference": "Observation/Observation.2.0.0.3.2.1"
            },
            {
                "reference": "Observation/Observation.2.0.0.3.2.2"
            },
            {
                "reference": "Observation/Observation.2.0.0.3.2.3"
            },
            {
                "reference": "Observation/Observation.2.0.0.3.2.4"
            },
            {
                "reference": "Observation/Observation.2.0.0.3.2.5"
            },
            {
                "reference": "Observation/Observation.2.0.0.3.2.6"
            }
        ]
    }
}
,{
    "fullUrl": "Observation/Observation.2.0.0.3.2.1",
    "resource": {
        "resourceType": "Observation",
        "id": "Observation.2.0.0.3.2.1",
        "meta": {
            "profile": [
                "https://www.ehealth.fgov.be/standards/fhir/lab/StructureDefinition/be-observation-laboratory"
            ]
        },
        "text": {
            "status": "empty"
        },
        "status": "final",
        "code": {
            "coding": [
                {
                    "system": "http://loinc.org",
                    "code": "18861-5"
                }
            ],
            "text": "Amoxicilline"
        },
        "subject": {
            "reference": "Patient/7165401"
        },
        "effectiveDateTime": "2022-01-07T00:00:00+01:00",
        "issued": "2022-01-07T17:49:33+01:00",
        "performer": [
            {
                "reference": "Practitioner/Responsible"
            }
        ],
        "valueString": "S",
        "interpretation": [
            {
                "coding": [
                    {
                        "system": "http://terminology.hl7.org/CodeSystem/v3-ObservationInterpretation",
                        "code": "S"
                    }
                ]
            }
        ],
        "specimen": {
            "reference": "Specimen/004815933574"
        }
    }
}
,{
    "fullUrl": "Observation/Observation.2.0.0.3.2.2",
    "resource": {
        "resourceType": "Observation",
        "id": "Observation.2.0.0.3.2.2",
        "meta": {
            "profile": [
                "https://www.ehealth.fgov.be/standards/fhir/lab/StructureDefinition/be-observation-laboratory"
            ]
        },
        "text": {
            "status": "empty"
        },
        "status": "final",
        "code": {
            "coding": [
                {
                    "system": "http://loinc.org",
                    "code": "18919-1"
                }
            ],
            "text": "Erythromycine"
        },
        "subject": {
            "reference": "Patient/7165401"
        },
        "effectiveDateTime": "2022-01-07T00:00:00+01:00",
        "issued": "2022-01-07T17:49:33+01:00",
        "performer": [
            {
                "reference": "Practitioner/Responsible"
            }
        ],
        "valueString": "S",
        "interpretation": [
            {
                "coding": [
                    {
                        "system": "http://terminology.hl7.org/CodeSystem/v3-ObservationInterpretation",
                        "code": "S"
                    }
                ]
            }
        ],
        "specimen": {
            "reference": "Specimen/004815933574"
        }
    }
}
,{
    "fullUrl": "Observation/Observation.2.0.0.3.2.3",
    "resource": {
        "resourceType": "Observation",
        "id": "Observation.2.0.0.3.2.3",
        "meta": {
            "profile": [
                "https://www.ehealth.fgov.be/standards/fhir/lab/StructureDefinition/be-observation-laboratory"
            ]
        },
        "text": {
            "status": "empty"
        },
        "status": "final",
        "code": {
            "coding": [
                {
                    "system": "http://loinc.org",
                    "code": "18908-4"
                }
            ],
            "text": "Clindamycine"
        },
        "subject": {
            "reference": "Patient/7165401"
        },
        "effectiveDateTime": "2022-01-07T00:00:00+01:00",
        "issued": "2022-01-07T17:49:33+01:00",
        "performer": [
            {
                "reference": "Practitioner/Responsible"
            }
        ],
        "valueString": "S",
        "interpretation": [
            {
                "coding": [
                    {
                        "system": "http://terminology.hl7.org/CodeSystem/v3-ObservationInterpretation",
                        "code": "S"
                    }
                ]
            }
        ],
        "specimen": {
            "reference": "Specimen/004815933574"
        }
    }
}
,{
    "fullUrl": "Observation/Observation.2.0.0.3.2.4",
    "resource": {
        "resourceType": "Observation",
        "id": "Observation.2.0.0.3.2.4",
        "meta": {
            "profile": [
                "https://www.ehealth.fgov.be/standards/fhir/lab/StructureDefinition/be-observation-laboratory"
            ]
        },
        "text": {
            "status": "empty"
        },
        "status": "final",
        "code": {
            "coding": [
                {
                    "system": "http://loinc.org",
                    "code": "18993-6"
                }
            ],
            "text": "Tetracycline"
        },
        "subject": {
            "reference": "Patient/7165401"
        },
        "effectiveDateTime": "2022-01-07T00:00:00+01:00",
        "issued": "2022-01-07T17:49:33+01:00",
        "performer": [
            {
                "reference": "Practitioner/Responsible"
            }
        ],
        "valueString": "S",
        "interpretation": [
            {
                "coding": [
                    {
                        "system": "http://terminology.hl7.org/CodeSystem/v3-ObservationInterpretation",
                        "code": "S"
                    }
                ]
            }
        ],
        "specimen": {
            "reference": "Specimen/004815933574"
        }
    }
}
,{
    "fullUrl": "Observation/Observation.2.0.0.3.2.5",
    "resource": {
        "resourceType": "Observation",
        "id": "Observation.2.0.0.3.2.5",
        "meta": {
            "profile": [
                "https://www.ehealth.fgov.be/standards/fhir/lab/StructureDefinition/be-observation-laboratory"
            ]
        },
        "text": {
            "status": "empty"
        },
        "status": "final",
        "code": {
            "coding": [
                {
                    "system": "http://loinc.org",
                    "code": "20629-2"
                }
            ],
            "text": "Levofloxacine"
        },
        "subject": {
            "reference": "Patient/7165401"
        },
        "effectiveDateTime": "2022-01-07T00:00:00+01:00",
        "issued": "2022-01-07T17:49:33+01:00",
        "performer": [
            {
                "reference": "Practitioner/Responsible"
            }
        ],
        "valueString": "S",
        "interpretation": [
            {
                "coding": [
                    {
                        "system": "http://terminology.hl7.org/CodeSystem/v3-ObservationInterpretation",
                        "code": "S"
                    }
                ]
            }
        ],
        "specimen": {
            "reference": "Specimen/004815933574"
        }
    }
}
,{
    "fullUrl": "Observation/Observation.2.0.0.3.2.6",
    "resource": {
        "resourceType": "Observation",
        "id": "Observation.2.0.0.3.2.6",
        "meta": {
            "profile": [
                "https://www.ehealth.fgov.be/standards/fhir/lab/StructureDefinition/be-observation-laboratory"
            ]
        },
        "text": {
            "status": "empty"
        },
        "status": "final",
        "code": {
            "coding": [
                {
                    "system": "http://loinc.org",
                    "code": "18998-5"
                }
            ],
            "text": "Trimethoprim/Sulfa"
        },
        "subject": {
            "reference": "Patient/7165401"
        },
        "effectiveDateTime": "2022-01-07T00:00:00+01:00",
        "issued": "2022-01-07T17:49:33+01:00",
        "performer": [
            {
                "reference": "Practitioner/Responsible"
            }
        ],
        "valueString": "S",
        "interpretation": [
            {
                "coding": [
                    {
                        "system": "http://terminology.hl7.org/CodeSystem/v3-ObservationInterpretation",
                        "code": "S"
                    }
                ]
            }
        ],
        "specimen": {
            "reference": "Specimen/004815933574"
        }
    }
}
,{
    "fullUrl": "Observation/Observation.2.0.0.3.3",
    "resource": {
        "resourceType": "Observation",
        "id": "Observation.2.0.0.3.3",
        "meta": {
            "profile": [
                "https://www.ehealth.fgov.be/standards/fhir/lab/StructureDefinition/be-observation-laboratory"
            ]
        },
        "text": {
            "status": "empty"
        },
        "status": "final",
        "code": {
            "coding": [
                {
                    "system": "http://loinc.org",
                    "code": "632-0"
                }
            ],
            "text": "-"
        },
        "subject": {
            "reference": "Patient/7165401"
        },
        "effectiveDateTime": "2022-01-07T00:00:00+01:00",
        "issued": "2022-01-07T17:49:33+01:00",
        "performer": [
            {
                "reference": "Practitioner/Responsible"
            }
        ],
        "valueString": "Klebsiella pneumoniae",
        "specimen": {
            "reference": "Specimen/004815933574"
        },
        "hasMember": [
            {
                "reference": "Observation/Observation.2.0.0.3.3.1"
            },
            {
                "reference": "Observation/Observation.2.0.0.3.3.2"
            },
            {
                "reference": "Observation/Observation.2.0.0.3.3.3"
            },
            {
                "reference": "Observation/Observation.2.0.0.3.3.4"
            },
            {
                "reference": "Observation/Observation.2.0.0.3.3.5"
            }
        ]
    }
}
,{
    "fullUrl": "Observation/Observation.2.0.0.3.3.1",
    "resource": {
        "resourceType": "Observation",
        "id": "Observation.2.0.0.3.3.1",
        "meta": {
            "profile": [
                "https://www.ehealth.fgov.be/standards/fhir/lab/StructureDefinition/be-observation-laboratory"
            ]
        },
        "text": {
            "status": "empty"
        },
        "status": "final",
        "code": {
            "coding": [
                {
                    "system": "http://loinc.org",
                    "code": "18861-5"
                }
            ],
            "text": "Amoxicilline"
        },
        "subject": {
            "reference": "Patient/7165401"
        },
        "effectiveDateTime": "2022-01-07T00:00:00+01:00",
        "issued": "2022-01-07T17:49:33+01:00",
        "performer": [
            {
                "reference": "Practitioner/Responsible"
            }
        ],
        "valueString": "R",
        "interpretation": [
            {
                "coding": [
                    {
                        "system": "http://terminology.hl7.org/CodeSystem/v3-ObservationInterpretation",
                        "code": "R"
                    }
                ]
            }
        ],
        "specimen": {
            "reference": "Specimen/004815933574"
        }
    }
}
,{
    "fullUrl": "Observation/Observation.2.0.0.3.3.2",
    "resource": {
        "resourceType": "Observation",
        "id": "Observation.2.0.0.3.3.2",
        "meta": {
            "profile": [
                "https://www.ehealth.fgov.be/standards/fhir/lab/StructureDefinition/be-observation-laboratory"
            ]
        },
        "text": {
            "status": "empty"
        },
        "status": "final",
        "code": {
            "coding": [
                {
                    "system": "http://loinc.org",
                    "code": "18862-3"
                }
            ],
            "text": "Amoxicilline/clavulaanzuur"
        },
        "subject": {
            "reference": "Patient/7165401"
        },
        "effectiveDateTime": "2022-01-07T00:00:00+01:00",
        "issued": "2022-01-07T17:49:33+01:00",
        "performer": [
            {
                "reference": "Practitioner/Responsible"
            }
        ],
        "valueString": "S",
        "interpretation": [
            {
                "coding": [
                    {
                        "system": "http://terminology.hl7.org/CodeSystem/v3-ObservationInterpretation",
                        "code": "S"
                    }
                ]
            }
        ],
        "specimen": {
            "reference": "Specimen/004815933574"
        }
    }
}
,{
    "fullUrl": "Observation/Observation.2.0.0.3.3.3",
    "resource": {
        "resourceType": "Observation",
        "id": "Observation.2.0.0.3.3.3",
        "meta": {
            "profile": [
                "https://www.ehealth.fgov.be/standards/fhir/lab/StructureDefinition/be-observation-laboratory"
            ]
        },
        "text": {
            "status": "empty"
        },
        "status": "final",
        "code": {
            "coding": [
                {
                    "system": "http://loinc.org",
                    "code": "18906-8"
                }
            ],
            "text": "Ciprofloxacine"
        },
        "subject": {
            "reference": "Patient/7165401"
        },
        "effectiveDateTime": "2022-01-07T00:00:00+01:00",
        "issued": "2022-01-07T17:49:33+01:00",
        "performer": [
            {
                "reference": "Practitioner/Responsible"
            }
        ],
        "valueString": "S",
        "interpretation": [
            {
                "coding": [
                    {
                        "system": "http://terminology.hl7.org/CodeSystem/v3-ObservationInterpretation",
                        "code": "S"
                    }
                ]
            }
        ],
        "specimen": {
            "reference": "Specimen/004815933574"
        }
    }
}
,{
    "fullUrl": "Observation/Observation.2.0.0.3.3.4",
    "resource": {
        "resourceType": "Observation",
        "id": "Observation.2.0.0.3.3.4",
        "meta": {
            "profile": [
                "https://www.ehealth.fgov.be/standards/fhir/lab/StructureDefinition/be-observation-laboratory"
            ]
        },
        "text": {
            "status": "empty"
        },
        "status": "final",
        "code": {
            "coding": [
                {
                    "system": "http://loinc.org",
                    "code": "18928-2"
                }
            ],
            "text": "Gentamicine"
        },
        "subject": {
            "reference": "Patient/7165401"
        },
        "effectiveDateTime": "2022-01-07T00:00:00+01:00",
        "issued": "2022-01-07T17:49:33+01:00",
        "performer": [
            {
                "reference": "Practitioner/Responsible"
            }
        ],
        "valueString": "R",
        "interpretation": [
            {
                "coding": [
                    {
                        "system": "http://terminology.hl7.org/CodeSystem/v3-ObservationInterpretation",
                        "code": "R"
                    }
                ]
            }
        ],
        "specimen": {
            "reference": "Specimen/004815933574"
        }
    }
}
,{
    "fullUrl": "Observation/Observation.2.0.0.3.3.5",
    "resource": {
        "resourceType": "Observation",
        "id": "Observation.2.0.0.3.3.5",
        "meta": {
            "profile": [
                "https://www.ehealth.fgov.be/standards/fhir/lab/StructureDefinition/be-observation-laboratory"
            ]
        },
        "text": {
            "status": "empty"
        },
        "status": "final",
        "code": {
            "coding": [
                {
                    "system": "http://loinc.org",
                    "code": "18998-5"
                }
            ],
            "text": "Trimethoprim/Sulfa"
        },
        "subject": {
            "reference": "Patient/7165401"
        },
        "effectiveDateTime": "2022-01-07T00:00:00+01:00",
        "issued": "2022-01-07T17:49:33+01:00",
        "performer": [
            {
                "reference": "Practitioner/Responsible"
            }
        ],
        "valueString": "R",
        "interpretation": [
            {
                "coding": [
                    {
                        "system": "http://terminology.hl7.org/CodeSystem/v3-ObservationInterpretation",
                        "code": "R"
                    }
                ]
            }
        ],
        "specimen": {
            "reference": "Specimen/004815933574"
        }
    }
}
,{
    "fullUrl": "DiagnosticReport/815933574",
    "resource": {
        "resourceType": "DiagnosticReport",
        "id": "815933574",
        "meta": {
            "versionId": "3",
            "profile": [
                "https://www.ehealth.fgov.be/standards/fhir/lab/StructureDefinition/be-laboratory-report"
            ]
        },
        "language": "nl",
        "text": {
            "status": "empty"
        },
        "identifier": [
            {
                "system": "https://www.ehealth.fgov.be/lab-report/diagnostic-report-id",
                "value": "81365677998.815933574"
            }
        ],
        "basedOn": [
            {
                "reference": "ServiceRequest/815933574"
            }
        ],
        "status": "final",
        "category": [
            {
                "coding": [
                    {
                        "system": "http://terminology.hl7.org/CodeSystem/v2-0074",
                        "code": "LAB",
                        "display": "Laboratory"
                    }
                ]
            }
        ],
        "code": {
            "coding": [
                {
                    "system": "http://loinc.org",
                    "code": "11502-2",
                    "display": "Laboratory report"
                }
            ]
        },
        "subject": {
            "reference": "Patient/7165401"
        },
        "effectiveDateTime": "2022-01-07T00:00:00+01:00",
        "issued": "2022-01-17T11:37:51+01:00",
        "performer": [
            {
                "reference": "Organization/81365677998"
            }
        ],
        "resultsInterpreter": [
            {
                "reference": "Practitioner/Responsible"
            }
        ],
        "specimen": [
            {
                "reference": "Specimen/005815933574"
            },
            {
                "reference": "Specimen/004815933574"
            }
        ],
        "result": [
            {
                "reference": "Observation/Observation.1.0.0.0"
            },
            {
                "reference": "Observation/Observation.2.0.0.0"
            }
        ]
    }
}
,{
    "fullUrl": "Organization/81365677998",
    "resource": {
        "resourceType": "Organization",
        "id": "81365677998",
        "meta": {
            "profile": [
                "https://www.ehealth.fgov.be/standards/fhir/core/StructureDefinition/be-organization"
            ]
        },
        "text": {
            "status": "empty"
        },
        "identifier": [
            {
                "use": "official",
                "type": {
                    "coding": [
                        {
                            "system": "http://terminology.hl7.org/CodeSystem/v2-0203",
                            "code": "MD",
                            "display": "Medical License number"
                        }
                    ]
                },
                "system": "https://www.ehealth.fgov.be/standards/fhir/core/NamingSystem/nihdi",
                "value": "81365677998"
            },
            {
                "use": "official",
                "system": "https://economie.fgov.be/belac",
                "value": "007-MED"
            }
        ],
        "active": true,
        "type": [
            {
                "coding": [
                    {
                        "system": "https://www.ehealth.fgov.be/standards/fhir/core/CodeSystem/cd-hcparty",
                        "code": "orglaboratory"
                    }
                ]
            }
        ],
        "name": "CENTRUM VOOR MEDISCHE ANALYSE",
        "telecom": [
            {
                "system": "phone",
                "value": "014/28.50.00",
                "use": "work"
            },
            {
                "system": "fax",
                "value": "014/22.56.08",
                "use": "work"
            },
            {
                "system": "email",
                "value": "info@cma.be",
                "use": "work"
            },
            {
                "system": "url",
                "value": "http://www.cma.be",
                "use": "work"
            }
        ],
        "address": [
            {
                "use": "work",
                "type": "both",
                "line": [
                    "Oud-Strijderslaan 199"
                ],
                "city": "Herentals",
                "postalCode": "2200",
                "country": "BE"
            }
        ]
    }
}
,{
    "fullUrl": "Practitioner/69",
    "resource": {
        "resourceType": "Practitioner",
        "id": "69",
        "meta": {
            "profile": [
                "https://www.ehealth.fgov.be/standards/fhir/core/StructureDefinition/be-practitioner"
            ]
        },
        "text": {
            "status": "empty"
        },
        "identifier": [
            {
                "use": "official",
                "system": "https://www.ehealth.fgov.be/standards/fhir/core/NamingSystem/nihdi",
                "value": "10000007999"
            }
        ],
        "name": [
            {
                "use": "official",
                "family": "Cma - Herentals",
                "given": [
                    "Fhir"
                ],
                "prefix": [
                    "Dr."
                ]
            }
        ],
        "telecom": [
            {
                "system": "email",
                "value": "info@cma.be",
                "use": "work"
            },
            {
                "system": "fax",
                "value": "(+32)14/225608",
                "use": "work"
            },
            {
                "system": "phone",
                "value": "(+32)14/285000",
                "use": "work"
            }
        ],
        "address": [
            {
                "use": "work",
                "type": "both",
                "line": [
                    "Oud-Strijderslaan 199"
                ],
                "city": "Herentals",
                "postalCode": "2200",
                "country": "BE"
            }
        ],
        "gender": "unknown"
    }
}
,{
    "fullUrl": "Practitioner/Responsible",
    "resource": {
        "resourceType": "Practitioner",
        "id": "Responsible",
        "meta": {
            "profile": [
                "https://www.ehealth.fgov.be/standards/fhir/core/StructureDefinition/be-practitioner"
            ]
        },
        "text": {
            "status": "empty"
        },
        "identifier": [
            {
                "use": "official",
                "system": "https://www.ehealth.fgov.be/standards/fhir/core/NamingSystem/nihdi",
                "value": "68071432800"
            }
        ],
        "name": [
            {
                "use": "official",
                "family": "Engelen",
                "given": [
                    "Frans"
                ]
            }
        ],
        "telecom": [
            {
                "system": "phone",
                "value": "014/28.50.00",
                "use": "work"
            }
        ],
        "address": [
            {
                "use": "work",
                "type": "both",
                "line": [
                    "Oud-Strijderslaan 199"
                ],
                "city": "Herentals",
                "postalCode": "2200",
                "country": "BE"
            }
        ],
        "gender": "unknown"
    }
}
,{
    "fullUrl": "Patient/7165401",
    "resource": {
        "resourceType": "Patient",
        "id": "7165401",
        "meta": {
            "profile": [
                "https://www.ehealth.fgov.be/standards/fhir/core/StructureDefinition/be-patient"
            ]
        },
        "text": {
            "status": "empty"
        },
        "identifier": [
            {
                "use": "official",
                "system": "https://www.ehealth.fgov.be/standards/fhir/core/NamingSystem/ssin",
                "value": "40010199813"
            }
        ],
        "active": true,
        "name": [
            {
                "use": "official",
                "family": "Lastname",
                "given": [
                    "Firstname Old"
                ]
            }
        ],
        "gender": "female",
        "birthDate": "1940-01-01"
    }
}
,{
    "fullUrl": "ServiceRequest/815933574",
    "resource": {
        "resourceType": "ServiceRequest",
        "id": "815933574",
        "text": {
            "status": "empty"
        },
        "identifier": [
            {
                "system": "http://www.macsys.be/hl7/ServiceRequest",
                "value": "815933574"
            }
        ],
        "status": "completed",
        "intent": "order",
        "category": [
            {
                "coding": [
                    {
                        "system": "http://snomed.info/sct",
                        "code": "108252007",
                        "display": "Laboratory procedure"
                    }
                ]
            }
        ],
        "subject": {
            "reference": "Patient/7165401"
        },
        "priority": "routine",
        "authoredOn": "2022-01-07T15:37:00+01:00",
        "requester": {
            "reference": "Practitioner/69"
        }
    }
}
]}