{
  "resourceType": "Bundle",
  "identifier": {
    "system": "https://www.ehealth.fgov.be/hl7/bundle",
    "value": "71071801000.61fe7570-23e0-49be-bd9e-1aa6f2182358"
  },
  "type": "document",
  "timestamp": "2022-09-01T17:15:48.540+02:00",
  "entry": [ {
    "fullUrl": "Composition/36005516",
    "resource": {
      "resourceType": "Composition",
      "id": "36005516",
      "meta": {
        "profile": [ "https://www.ehealth.fgov.be/standards/fhir/StructureDefinition/be-laboratory-report-composition" ]
      },
      "text": {
        "status": "empty",
        "div": "<div xmlns=\"http://www.w3.org/1999/xhtml\">empty</div>"
      },
      "identifier": {
        "system": "https://www.ehealth.fgov.be/lab-report/diagnostic-report-id",
        "value": "71071801000.61fe7570-23e0-49be-bd9e-1aa6f2182358"
      },
      "status": "final",
      "type": {
        "coding": [ {
          "system": "http://loinc.org",
          "code": "11502-2",
          "display": "Laboratory report"
        } ]
      },
      "subject": {
        "reference": "Patient/1368877"
      },
      "date": "2022-09-01T17:15:48+02:00",
      "author": [ {
        "reference": "Organization/37343"
      } ],
      "title": "Laboratory Report",
      "section": [ {
        "entry": [ {
          "reference": "DiagnosticReport/36005516"
        } ]
      } ]
    }
  }, {
    "fullUrl": "DiagnosticReport/36005516",
    "resource": {
      "resourceType": "DiagnosticReport",
      "id": "36005516",
      "meta": {
        "versionId": "1",
        "profile": [ "https://www.ehealth.fgov.be/standards/fhir/StructureDefinition/be-laboratory-report" ]
      },
      "text": {
        "status": "empty",
        "div": "<div xmlns=\"http://www.w3.org/1999/xhtml\">empty</div>"
      },
      "identifier": [ {
        "system": "https://www.ehealth.fgov.be/lab-report/diagnostic-report-id",
        "value": "71071801000.61fe7570-23e0-49be-bd9e-1aa6f2182358"
      } ],
      "basedOn": [ {
        "reference": "ServiceRequest/14179391"
      } ],
      "status": "final",
      "category": [ {
        "coding": [ {
          "system": "http://terminology.hl7.org/CodeSystem/v2-0074",
          "code": "LAB",
          "display": "Laboratory"
        } ]
      } ],
      "code": {
        "coding": [ {
          "system": "http://loinc.org",
          "code": "11502-2"
        } ],
        "text": "Compte-rendu labo"
      },
      "subject": {
        "reference": "Patient/1368877"
      },
      "effectiveDateTime": "2022-09-01T17:15:48+02:00",
      "issued": "2022-09-01T17:15:44.000+02:00",
      "performer": [ {
        "reference": "Organization/37343"
      } ],
      "resultsInterpreter": [ {
        "reference": "Practitioner/37322"
      } ],
      "specimen": [ {
        "reference": "Specimen/1417939101"
      }, {
        "reference": "Specimen/1417939103"
      }, {
        "reference": "Specimen/1417939105"
      }, {
        "reference": "Specimen/1417939107"
      }, {
        "reference": "Specimen/1417939109"
      }, {
        "reference": "Specimen/1417939111"
      }, {
        "reference": "Specimen/1417939102"
      }, {
        "reference": "Specimen/1417939104"
      }, {
        "reference": "Specimen/1417939106"
      }, {
        "reference": "Specimen/1417939108"
      }, {
        "reference": "Specimen/1417939110"
      }, {
        "reference": "Specimen/1417939112"
      } ],
      "result": [ {
        "reference": "Observation/76009ded-f75d-469b-af05-1b22907487cf"
      }, {
        "reference": "Observation/3e475881-36b7-42b5-a369-97af39189324"
      }, {
        "reference": "Observation/6a8ebb05-3ac7-4d2c-8627-6dad40d84df1"
      } ]
    }
  }, {
    "fullUrl": "Patient/1368877",
    "resource": {
      "resourceType": "Patient",
      "id": "1368877",
      "meta": {
        "versionId": "1",
        "profile": [ "https://www.ehealth.fgov.be/standards/fhir/StructureDefinition/be-patient" ]
      },
      "text": {
        "status": "empty",
        "div": "<div xmlns=\"http://www.w3.org/1999/xhtml\">empty</div>"
      },
      "identifier": [ {
        "use": "official",
        "system": "https://www.ehealth.fgov.be/standards/fhir/NamingSystem/ssin",
        "value": "22120917009"
      }, {
        "system": "https://www.isppc.be",
        "value": "1084944"
      }, {
        "system": "http://www.mips.be/CHU",
        "value": "20120217SULT04"
      } ],
      "name": [ {
        "family": "SULVOYE",
        "given": [ "TOUDIE" ]
      } ],
      "telecom": [ {
        "system": "phone",
        "value": "0474061079"
      }, {
        "system": "phone",
        "value": "04771234567890"
      } ],
      "gender": "female",
      "birthDate": "2012-02-17",
      "address": [ {
        "line": [ "XXX" ],
        "city": "BRUXELLES",
        "postalCode": "1000",
        "country": "B"
      } ],
      "generalPractitioner": [ {
        "reference": "Practitioner/8547287"
      } ]
    }
  }, {
    "fullUrl": "ServiceRequest/14179391",
    "resource": {
      "resourceType": "ServiceRequest",
      "id": "14179391",
      "text": {
        "status": "empty",
        "div": "<div xmlns=\"http://www.w3.org/1999/xhtml\">empty</div>"
      },
      "identifier": [ {
        "system": "https://mips.be/CHUCHAR",
        "value": "14179391"
      } ],
      "status": "active",
      "intent": "order",
      "priority": "routine",
      "subject": {
        "reference": "Patient/1368877"
      },
      "authoredOn": "2022-08-31T11:15:00+02:00",
      "requester": {
        "reference": "Practitioner/33626"
      }
    }
  }, {
    "fullUrl": "Practitioner/8547287",
    "resource": {
      "resourceType": "Practitioner",
      "id": "8547287",
      "meta": {
        "versionId": "1",
        "profile": [ "https://www.ehealth.fgov.be/standards/fhir/StructureDefinition/be-practitioner" ]
      },
      "text": {
        "status": "empty",
        "div": "<div xmlns=\"http://www.w3.org/1999/xhtml\">empty</div>"
      },
      "identifier": [ {
        "system": "https://www.ehealth.fgov.be/standards/fhir/NamingSystem/nihdi",
        "value": "18846902001"
      } ],
      "name": [ {
        "family": "ROUCOUX",
        "given": [ "François" ]
      } ],
      "telecom": [ {
        "system": "phone",
        "value": "32 81/45.09.47"
      }, {
        "system": "phone",
        "value": "H"
      } ],
      "address": [ {
        "line": [ "Place du Vierly, 22" ],
        "city": "WEPION",
        "postalCode": "5100",
        "country": "B"
      } ],
      "gender": "male"
    }
  }, {
    "fullUrl": "Practitioner/33626",
    "resource": {
      "resourceType": "Practitioner",
      "id": "33626",
      "meta": {
        "versionId": "1",
        "profile": [ "https://www.ehealth.fgov.be/standards/fhir/StructureDefinition/be-practitioner" ]
      },
      "text": {
        "status": "empty",
        "div": "<div xmlns=\"http://www.w3.org/1999/xhtml\">empty</div>"
      },
      "identifier": [ {
        "system": "https://www.ehealth.fgov.be/standards/fhir/NamingSystem/nihdi",
        "value": "15717958862"
      } ],
      "name": [ {
        "family": "CAUCHIE",
        "given": [ "Philippe" ],
        "prefix": [ "Dr" ]
      } ],
      "telecom": [ {
        "system": "phone",
        "value": "24720"
      }, {
        "system": "phone",
        "value": "H"
      } ],
      "address": [ {
        "line": [ "Courrier interne (SIH)" ]
      } ],
      "gender": "male"
    }
  }, {
    "fullUrl": "Organization/37343",
    "resource": {
      "resourceType": "Organization",
      "id": "37343",
      "text": {
        "status": "empty",
        "div": "<div xmlns=\"http://www.w3.org/1999/xhtml\">empty</div>"
      },
      "identifier": [ {
        "system": "https://www.ehealth.fgov.be/standards/fhir/NamingSystem/nihdi",
        "value": "71032506000"
      } ],
      "name": "Hôpital André Vésale",
      "telecom": [ {
        "system": "phone",
        "value": "071/92.47.00"
      }, {
        "system": "fax",
        "value": "071/92.47.10"
      }, {
        "system": "email",
        "value": "laboratoire@chu-charleroi.be"
      } ],
      "address": [ {
        "line": [ "Route de Gozée 706" ],
        "city": "Montigny-le-Tilleul",
        "postalCode": "6110",
        "country": "B"
      } ]
    }
  }, {
    "fullUrl": "Practitioner/37322",
    "resource": {
      "resourceType": "Practitioner",
      "id": "37322",
      "meta": {
        "versionId": "1",
        "profile": [ "https://www.ehealth.fgov.be/standards/fhir/StructureDefinition/be-practitioner" ]
      },
      "text": {
        "status": "empty",
        "div": "<div xmlns=\"http://www.w3.org/1999/xhtml\">empty</div>"
      },
      "identifier": [ {
        "system": "https://www.ehealth.fgov.be/standards/fhir/NamingSystem/nihdi",
        "value": "68056980800"
      } ],
      "name": [ {
        "family": "COURBE",
        "given": [ "Anne" ],
        "prefix": [ "Mme" ]
      } ],
      "telecom": [ {
        "system": "phone",
        "value": "32 71/56.13.45"
      }, {
        "system": "phone",
        "value": "H"
      }, {
        "system": "email",
        "value": "anne.courbe@chu-charleroi.be"
      } ],
      "address": [ {
        "line": [ "Courrier interne (SIH)" ]
      } ],
      "gender": "female"
    }
  }, {
    "fullUrl": "Observation/188b35a8-86f4-4e2a-8ce5-fcc2a72c41fb",
    "resource": {
      "resourceType": "Observation",
      "id": "188b35a8-86f4-4e2a-8ce5-fcc2a72c41fb",
      "meta": {
        "versionId": "1",
        "profile": [ "https://www.ehealth.fgov.be/standards/fhir/StructureDefinition/be-observation-laboratory" ]
      },
      "text": {
        "status": "empty",
        "div": "<div xmlns=\"http://www.w3.org/1999/xhtml\">empty</div>"
      },
      "status": "unknown",
      "code": {
        "text": "Test HL7FHIR 2"
      },
      "subject": {
        "reference": "Patient/1368877"
      }
    }
  }, {
    "fullUrl": "Observation/76009ded-f75d-469b-af05-1b22907487cf",
    "resource": {
      "resourceType": "Observation",
      "id": "76009ded-f75d-469b-af05-1b22907487cf",
      "meta": {
        "versionId": "1",
        "profile": [ "https://www.ehealth.fgov.be/standards/fhir/StructureDefinition/be-observation-laboratory" ]
      },
      "text": {
        "status": "empty",
        "div": "<div xmlns=\"http://www.w3.org/1999/xhtml\">empty</div>"
      },
      "status": "unknown",
      "code": {
        "text": "Renseignements:"
      },
      "subject": {
        "reference": "Patient/1368877"
      },
      "hasMember": [ {
        "reference": "Observation/188b35a8-86f4-4e2a-8ce5-fcc2a72c41fb"
      } ]
    }
  }, {
    "fullUrl": "Observation/c8bc45c7-c341-4a77-a1a8-8dde8d9a2ca7",
    "resource": {
      "resourceType": "Observation",
      "id": "c8bc45c7-c341-4a77-a1a8-8dde8d9a2ca7",
      "meta": {
        "versionId": "1",
        "profile": [ "https://www.ehealth.fgov.be/standards/fhir/StructureDefinition/be-observation-laboratory" ]
      },
      "text": {
        "status": "empty",
        "div": "<div xmlns=\"http://www.w3.org/1999/xhtml\">empty</div>"
      },
      "status": "unknown",
      "code": {
        "text": "Métabolisme glycémique"
      },
      "subject": {
        "reference": "Patient/1368877"
      },
      "hasMember": [ {
        "reference": "Observation/117065576"
      }, {
        "reference": "Observation/117065577"
      }, {
        "reference": "Observation/117065578"
      }, {
        "reference": "Observation/117065579"
      }, {
        "reference": "Observation/117138875"
      }, {
        "reference": "Observation/117138876"
      } ]
    }
  }, {
    "fullUrl": "Observation/3e475881-36b7-42b5-a369-97af39189324",
    "resource": {
      "resourceType": "Observation",
      "id": "3e475881-36b7-42b5-a369-97af39189324",
      "meta": {
        "versionId": "1",
        "profile": [ "https://www.ehealth.fgov.be/standards/fhir/StructureDefinition/be-observation-laboratory" ]
      },
      "text": {
        "status": "empty",
        "div": "<div xmlns=\"http://www.w3.org/1999/xhtml\">empty</div>"
      },
      "status": "unknown",
      "code": {
        "text": "EXAMENS PHYSICO-CHIMIQUES DU SANG"
      },
      "subject": {
        "reference": "Patient/1368877"
      },
      "hasMember": [ {
        "reference": "Observation/c8bc45c7-c341-4a77-a1a8-8dde8d9a2ca7"
      } ]
    }
  }, {
    "fullUrl": "Observation/fa81e1cb-c24a-4ad2-848f-38de01b7aa16",
    "resource": {
      "resourceType": "Observation",
      "id": "fa81e1cb-c24a-4ad2-848f-38de01b7aa16",
      "meta": {
        "versionId": "1",
        "profile": [ "https://www.ehealth.fgov.be/standards/fhir/StructureDefinition/be-observation-laboratory" ]
      },
      "text": {
        "status": "empty",
        "div": "<div xmlns=\"http://www.w3.org/1999/xhtml\">empty</div>"
      },
      "status": "unknown",
      "code": {
        "text": "Endocrinologie"
      },
      "subject": {
        "reference": "Patient/1368877"
      },
      "hasMember": [ {
        "reference": "Observation/117065580"
      }, {
        "reference": "Observation/117065581"
      }, {
        "reference": "Observation/117065582"
      }, {
        "reference": "Observation/117065583"
      }, {
        "reference": "Observation/117138877"
      }, {
        "reference": "Observation/117138878"
      } ]
    }
  }, {
    "fullUrl": "Observation/6a8ebb05-3ac7-4d2c-8627-6dad40d84df1",
    "resource": {
      "resourceType": "Observation",
      "id": "6a8ebb05-3ac7-4d2c-8627-6dad40d84df1",
      "meta": {
        "versionId": "1",
        "profile": [ "https://www.ehealth.fgov.be/standards/fhir/StructureDefinition/be-observation-laboratory" ]
      },
      "text": {
        "status": "empty",
        "div": "<div xmlns=\"http://www.w3.org/1999/xhtml\">empty</div>"
      },
      "status": "unknown",
      "code": {
        "text": "EXAMENS HORMONAUX"
      },
      "subject": {
        "reference": "Patient/1368877"
      },
      "hasMember": [ {
        "reference": "Observation/fa81e1cb-c24a-4ad2-848f-38de01b7aa16"
      } ]
    }
  }, {
    "fullUrl": "ServiceRequest/115620801",
    "resource": {
      "resourceType": "ServiceRequest",
      "id": "115620801",
      "text": {
        "status": "empty",
        "div": "<div xmlns=\"http://www.w3.org/1999/xhtml\">empty</div>"
      },
      "identifier": [ {
        "system": "https://mips.be/CHUCHAR",
        "value": "115620801"
      } ],
      "status": "active",
      "intent": "order",
      "priority": "routine",
      "subject": {
        "reference": "Patient/1368877"
      }
    }
  }, {
    "fullUrl": "ServiceRequest/115620803",
    "resource": {
      "resourceType": "ServiceRequest",
      "id": "115620803",
      "text": {
        "status": "empty",
        "div": "<div xmlns=\"http://www.w3.org/1999/xhtml\">empty</div>"
      },
      "identifier": [ {
        "system": "https://mips.be/CHUCHAR",
        "value": "115620803"
      } ],
      "status": "active",
      "intent": "order",
      "priority": "routine",
      "subject": {
        "reference": "Patient/1368877"
      }
    }
  }, {
    "fullUrl": "ServiceRequest/115620805",
    "resource": {
      "resourceType": "ServiceRequest",
      "id": "115620805",
      "text": {
        "status": "empty",
        "div": "<div xmlns=\"http://www.w3.org/1999/xhtml\">empty</div>"
      },
      "identifier": [ {
        "system": "https://mips.be/CHUCHAR",
        "value": "115620805"
      } ],
      "status": "active",
      "intent": "order",
      "priority": "routine",
      "subject": {
        "reference": "Patient/1368877"
      }
    }
  }, {
    "fullUrl": "ServiceRequest/115620807",
    "resource": {
      "resourceType": "ServiceRequest",
      "id": "115620807",
      "text": {
        "status": "empty",
        "div": "<div xmlns=\"http://www.w3.org/1999/xhtml\">empty</div>"
      },
      "identifier": [ {
        "system": "https://mips.be/CHUCHAR",
        "value": "115620807"
      } ],
      "status": "active",
      "intent": "order",
      "priority": "routine",
      "subject": {
        "reference": "Patient/1368877"
      }
    }
  }, {
    "fullUrl": "ServiceRequest/115701209",
    "resource": {
      "resourceType": "ServiceRequest",
      "id": "115701209",
      "text": {
        "status": "empty",
        "div": "<div xmlns=\"http://www.w3.org/1999/xhtml\">empty</div>"
      },
      "identifier": [ {
        "system": "https://mips.be/CHUCHAR",
        "value": "115701209"
      } ],
      "status": "active",
      "intent": "order",
      "priority": "routine",
      "subject": {
        "reference": "Patient/1368877"
      }
    }
  }, {
    "fullUrl": "ServiceRequest/115701211",
    "resource": {
      "resourceType": "ServiceRequest",
      "id": "115701211",
      "text": {
        "status": "empty",
        "div": "<div xmlns=\"http://www.w3.org/1999/xhtml\">empty</div>"
      },
      "identifier": [ {
        "system": "https://mips.be/CHUCHAR",
        "value": "115701211"
      } ],
      "status": "active",
      "intent": "order",
      "priority": "routine",
      "subject": {
        "reference": "Patient/1368877"
      }
    }
  }, {
    "fullUrl": "ServiceRequest/115620809",
    "resource": {
      "resourceType": "ServiceRequest",
      "id": "115620809",
      "text": {
        "status": "empty",
        "div": "<div xmlns=\"http://www.w3.org/1999/xhtml\">empty</div>"
      },
      "identifier": [ {
        "system": "https://mips.be/CHUCHAR",
        "value": "115620809"
      } ],
      "status": "active",
      "intent": "order",
      "priority": "routine",
      "subject": {
        "reference": "Patient/1368877"
      }
    }
  }, {
    "fullUrl": "ServiceRequest/115620811",
    "resource": {
      "resourceType": "ServiceRequest",
      "id": "115620811",
      "text": {
        "status": "empty",
        "div": "<div xmlns=\"http://www.w3.org/1999/xhtml\">empty</div>"
      },
      "identifier": [ {
        "system": "https://mips.be/CHUCHAR",
        "value": "115620811"
      } ],
      "status": "active",
      "intent": "order",
      "priority": "routine",
      "subject": {
        "reference": "Patient/1368877"
      }
    }
  }, {
    "fullUrl": "ServiceRequest/115620813",
    "resource": {
      "resourceType": "ServiceRequest",
      "id": "115620813",
      "text": {
        "status": "empty",
        "div": "<div xmlns=\"http://www.w3.org/1999/xhtml\">empty</div>"
      },
      "identifier": [ {
        "system": "https://mips.be/CHUCHAR",
        "value": "115620813"
      } ],
      "status": "active",
      "intent": "order",
      "priority": "routine",
      "subject": {
        "reference": "Patient/1368877"
      }
    }
  }, {
    "fullUrl": "ServiceRequest/115620815",
    "resource": {
      "resourceType": "ServiceRequest",
      "id": "115620815",
      "text": {
        "status": "empty",
        "div": "<div xmlns=\"http://www.w3.org/1999/xhtml\">empty</div>"
      },
      "identifier": [ {
        "system": "https://mips.be/CHUCHAR",
        "value": "115620815"
      } ],
      "status": "active",
      "intent": "order",
      "priority": "routine",
      "subject": {
        "reference": "Patient/1368877"
      }
    }
  }, {
    "fullUrl": "ServiceRequest/115701213",
    "resource": {
      "resourceType": "ServiceRequest",
      "id": "115701213",
      "text": {
        "status": "empty",
        "div": "<div xmlns=\"http://www.w3.org/1999/xhtml\">empty</div>"
      },
      "identifier": [ {
        "system": "https://mips.be/CHUCHAR",
        "value": "115701213"
      } ],
      "status": "active",
      "intent": "order",
      "priority": "routine",
      "subject": {
        "reference": "Patient/1368877"
      }
    }
  }, {
    "fullUrl": "ServiceRequest/115701215",
    "resource": {
      "resourceType": "ServiceRequest",
      "id": "115701215",
      "text": {
        "status": "empty",
        "div": "<div xmlns=\"http://www.w3.org/1999/xhtml\">empty</div>"
      },
      "identifier": [ {
        "system": "https://mips.be/CHUCHAR",
        "value": "115701215"
      } ],
      "status": "active",
      "intent": "order",
      "priority": "routine",
      "subject": {
        "reference": "Patient/1368877"
      }
    }
  }, {
    "fullUrl": "Observation/117065576",
    "resource": {
      "resourceType": "Observation",
      "id": "117065576",
      "meta": {
        "versionId": "1",
        "profile": [ "https://www.ehealth.fgov.be/standards/fhir/StructureDefinition/be-observation-laboratory" ]
      },
      "text": {
        "status": "empty",
        "div": "<div xmlns=\"http://www.w3.org/1999/xhtml\">empty</div>"
      },
      "basedOn": [ {
        "reference": "ServiceRequest/115620801"
      } ],
      "status": "final",
      "code": {
        "coding": [ {
          "system": "http://loinc.org",
          "code": "2345-7",
          "display": "GlyF +00:00"
        } ]
      },
      "subject": {
        "reference": "Patient/1368877"
      },
      "issued": "2022-09-01T17:09:44.000+02:00",
      "valueQuantity": {
        "value": 80,
        "system": "http://unitsofmeasure.org",
        "code": "mg/dL"
      },
      "specimen": {
        "reference": "Specimen/1417939101"
      },
      "referenceRange": [ {
        "low": {
          "value": 70,
          "system": "http://unitsofmeasure.org",
          "code": "mg/dL"
        },
        "high": {
          "value": 110,
          "system": "http://unitsofmeasure.org",
          "code": "mg/dL"
        }
      } ]
    }
  }, {
    "fullUrl": "Observation/117065577",
    "resource": {
      "resourceType": "Observation",
      "id": "117065577",
      "meta": {
        "versionId": "1",
        "profile": [ "https://www.ehealth.fgov.be/standards/fhir/StructureDefinition/be-observation-laboratory" ]
      },
      "text": {
        "status": "empty",
        "div": "<div xmlns=\"http://www.w3.org/1999/xhtml\">empty</div>"
      },
      "basedOn": [ {
        "reference": "ServiceRequest/115620803"
      } ],
      "status": "cancelled",
      "code": {
        "coding": [ {
          "system": "http://loinc.org",
          "code": "2345-7",
          "display": "GlyF +00:15"
        } ]
      },
      "subject": {
        "reference": "Patient/1368877"
      },
      "specimen": {
        "reference": "Specimen/1417939103"
      }
    }
  }, {
    "fullUrl": "Observation/117065578",
    "resource": {
      "resourceType": "Observation",
      "id": "117065578",
      "meta": {
        "versionId": "1",
        "profile": [ "https://www.ehealth.fgov.be/standards/fhir/StructureDefinition/be-observation-laboratory" ]
      },
      "text": {
        "status": "empty",
        "div": "<div xmlns=\"http://www.w3.org/1999/xhtml\">empty</div>"
      },
      "basedOn": [ {
        "reference": "ServiceRequest/115620805"
      } ],
      "status": "final",
      "code": {
        "coding": [ {
          "system": "http://loinc.org",
          "code": "2345-7",
          "display": "GlyF +00:30"
        } ]
      },
      "subject": {
        "reference": "Patient/1368877"
      },
      "issued": "2022-09-01T17:09:55.000+02:00",
      "valueQuantity": {
        "value": 105,
        "system": "http://unitsofmeasure.org",
        "code": "mg/dL"
      },
      "specimen": {
        "reference": "Specimen/1417939105"
      }
    }
  }, {
    "fullUrl": "Observation/117065579",
    "resource": {
      "resourceType": "Observation",
      "id": "117065579",
      "meta": {
        "versionId": "1",
        "profile": [ "https://www.ehealth.fgov.be/standards/fhir/StructureDefinition/be-observation-laboratory" ]
      },
      "text": {
        "status": "empty",
        "div": "<div xmlns=\"http://www.w3.org/1999/xhtml\">empty</div>"
      },
      "basedOn": [ {
        "reference": "ServiceRequest/115620807"
      } ],
      "status": "final",
      "code": {
        "coding": [ {
          "system": "http://loinc.org",
          "code": "2345-7",
          "display": "GlyF +01:00"
        } ]
      },
      "subject": {
        "reference": "Patient/1368877"
      },
      "issued": "2022-09-01T17:10:09.000+02:00",
      "valueQuantity": {
        "value": 190,
        "system": "http://unitsofmeasure.org",
        "code": "mg/dL"
      },
      "specimen": {
        "reference": "Specimen/1417939107"
      }
    }
  }, {
    "fullUrl": "Observation/117138875",
    "resource": {
      "resourceType": "Observation",
      "id": "117138875",
      "meta": {
        "versionId": "1",
        "profile": [ "https://www.ehealth.fgov.be/standards/fhir/StructureDefinition/be-observation-laboratory" ]
      },
      "text": {
        "status": "empty",
        "div": "<div xmlns=\"http://www.w3.org/1999/xhtml\">empty</div>"
      },
      "basedOn": [ {
        "reference": "ServiceRequest/115701209"
      } ],
      "status": "final",
      "code": {
        "coding": [ {
          "system": "http://loinc.org",
          "code": "2345-7",
          "display": "GlyF +02:00"
        } ]
      },
      "subject": {
        "reference": "Patient/1368877"
      },
      "issued": "2022-09-01T17:10:17.000+02:00",
      "valueQuantity": {
        "value": 160,
        "system": "http://unitsofmeasure.org",
        "code": "mg/dL"
      },
      "specimen": {
        "reference": "Specimen/1417939109"
      }
    }
  }, {
    "fullUrl": "Observation/117138876",
    "resource": {
      "resourceType": "Observation",
      "id": "117138876",
      "meta": {
        "versionId": "1",
        "profile": [ "https://www.ehealth.fgov.be/standards/fhir/StructureDefinition/be-observation-laboratory" ]
      },
      "text": {
        "status": "empty",
        "div": "<div xmlns=\"http://www.w3.org/1999/xhtml\">empty</div>"
      },
      "basedOn": [ {
        "reference": "ServiceRequest/115701211"
      } ],
      "status": "final",
      "code": {
        "coding": [ {
          "system": "http://loinc.org",
          "code": "2345-7",
          "display": "GlyF +03:00"
        } ]
      },
      "subject": {
        "reference": "Patient/1368877"
      },
      "issued": "2022-09-01T17:10:49.000+02:00",
      "valueQuantity": {
        "value": 140,
        "system": "http://unitsofmeasure.org",
        "code": "mg/dL"
      },
      "specimen": {
        "reference": "Specimen/1417939111"
      }
    }
  }, {
    "fullUrl": "Observation/117065580",
    "resource": {
      "resourceType": "Observation",
      "id": "117065580",
      "meta": {
        "versionId": "1",
        "profile": [ "https://www.ehealth.fgov.be/standards/fhir/StructureDefinition/be-observation-laboratory" ]
      },
      "text": {
        "status": "empty",
        "div": "<div xmlns=\"http://www.w3.org/1999/xhtml\">empty</div>"
      },
      "basedOn": [ {
        "reference": "ServiceRequest/115620809"
      } ],
      "status": "final",
      "code": {
        "coding": [ {
          "system": "http://loinc.org",
          "code": "47670-5"
        } ],
        "text": "Insuline"
      },
      "subject": {
        "reference": "Patient/1368877"
      },
      "issued": "2022-09-01T17:11:24.000+02:00",
      "valueQuantity": {
        "value": 50,
        "system": "http://unitsofmeasure.org",
        "code": "pmol/L"
      },
      "specimen": {
        "reference": "Specimen/1417939102"
      },
      "referenceRange": [ {
        "low": {
          "value": 35,
          "system": "http://unitsofmeasure.org",
          "code": "pmol/L"
        },
        "high": {
          "value": 70,
          "system": "http://unitsofmeasure.org",
          "code": "pmol/L"
        }
      } ]
    }
  }, {
    "fullUrl": "Observation/117065581",
    "resource": {
      "resourceType": "Observation",
      "id": "117065581",
      "meta": {
        "versionId": "1",
        "profile": [ "https://www.ehealth.fgov.be/standards/fhir/StructureDefinition/be-observation-laboratory" ]
      },
      "text": {
        "status": "empty",
        "div": "<div xmlns=\"http://www.w3.org/1999/xhtml\">empty</div>"
      },
      "basedOn": [ {
        "reference": "ServiceRequest/115620811"
      } ],
      "status": "cancelled",
      "code": {
        "coding": [ {
          "system": "http://loinc.org",
          "code": "47670-5"
        } ],
        "text": "Insuline"
      },
      "subject": {
        "reference": "Patient/1368877"
      },
      "specimen": {
        "reference": "Specimen/1417939104"
      }
    }
  }, {
    "fullUrl": "Observation/117065582",
    "resource": {
      "resourceType": "Observation",
      "id": "117065582",
      "meta": {
        "versionId": "1",
        "profile": [ "https://www.ehealth.fgov.be/standards/fhir/StructureDefinition/be-observation-laboratory" ]
      },
      "text": {
        "status": "empty",
        "div": "<div xmlns=\"http://www.w3.org/1999/xhtml\">empty</div>"
      },
      "basedOn": [ {
        "reference": "ServiceRequest/115620813"
      } ],
      "status": "final",
      "code": {
        "coding": [ {
          "system": "http://loinc.org",
          "code": "47670-5"
        } ],
        "text": "Insuline"
      },
      "subject": {
        "reference": "Patient/1368877"
      },
      "issued": "2022-09-01T17:11:28.000+02:00",
      "valueQuantity": {
        "value": 200,
        "system": "http://unitsofmeasure.org",
        "code": "pmol/L"
      },
      "specimen": {
        "reference": "Specimen/1417939106"
      }
    }
  }, {
    "fullUrl": "Observation/117065583",
    "resource": {
      "resourceType": "Observation",
      "id": "117065583",
      "meta": {
        "versionId": "1",
        "profile": [ "https://www.ehealth.fgov.be/standards/fhir/StructureDefinition/be-observation-laboratory" ]
      },
      "text": {
        "status": "empty",
        "div": "<div xmlns=\"http://www.w3.org/1999/xhtml\">empty</div>"
      },
      "basedOn": [ {
        "reference": "ServiceRequest/115620815"
      } ],
      "status": "final",
      "code": {
        "coding": [ {
          "system": "http://loinc.org",
          "code": "47670-5"
        } ],
        "text": "Insuline"
      },
      "subject": {
        "reference": "Patient/1368877"
      },
      "issued": "2022-09-01T17:11:31.000+02:00",
      "valueQuantity": {
        "value": 180,
        "system": "http://unitsofmeasure.org",
        "code": "pmol/L"
      },
      "specimen": {
        "reference": "Specimen/1417939108"
      }
    }
  }, {
    "fullUrl": "Observation/117138877",
    "resource": {
      "resourceType": "Observation",
      "id": "117138877",
      "meta": {
        "versionId": "1",
        "profile": [ "https://www.ehealth.fgov.be/standards/fhir/StructureDefinition/be-observation-laboratory" ]
      },
      "text": {
        "status": "empty",
        "div": "<div xmlns=\"http://www.w3.org/1999/xhtml\">empty</div>"
      },
      "basedOn": [ {
        "reference": "ServiceRequest/115701213"
      } ],
      "status": "final",
      "code": {
        "coding": [ {
          "system": "http://loinc.org",
          "code": "47670-5"
        } ],
        "text": "Insuline"
      },
      "subject": {
        "reference": "Patient/1368877"
      },
      "issued": "2022-09-01T17:11:40.000+02:00",
      "valueQuantity": {
        "value": 150,
        "system": "http://unitsofmeasure.org",
        "code": "pmol/L"
      },
      "specimen": {
        "reference": "Specimen/1417939110"
      }
    }
  }, {
    "fullUrl": "Observation/117138878",
    "resource": {
      "resourceType": "Observation",
      "id": "117138878",
      "meta": {
        "versionId": "1",
        "profile": [ "https://www.ehealth.fgov.be/standards/fhir/StructureDefinition/be-observation-laboratory" ]
      },
      "text": {
        "status": "empty",
        "div": "<div xmlns=\"http://www.w3.org/1999/xhtml\">empty</div>"
      },
      "basedOn": [ {
        "reference": "ServiceRequest/115701215"
      } ],
      "status": "final",
      "code": {
        "coding": [ {
          "system": "http://loinc.org",
          "code": "47670-5"
        } ],
        "text": "Insuline"
      },
      "subject": {
        "reference": "Patient/1368877"
      },
      "issued": "2022-09-01T17:11:44.000+02:00",
      "valueQuantity": {
        "value": 100,
        "system": "http://unitsofmeasure.org",
        "code": "pmol/L"
      },
      "specimen": {
        "reference": "Specimen/1417939112"
      }
    }
  }, {
    "fullUrl": "Specimen/1417939101",
    "resource": {
      "resourceType": "Specimen",
      "id": "1417939101",
      "meta": {
        "versionId": "1",
        "profile": [ "https://www.ehealth.fgov.be/standards/fhir/StructureDefinition/be-specimen-laboratory" ]
      },
      "text": {
        "status": "empty",
        "div": "<div xmlns=\"http://www.w3.org/1999/xhtml\">empty</div>"
      },
      "identifier": [ {
        "system": "https://mips.be/CHUCHAR",
        "value": "1417939101"
      } ],
      "status": "available",
      "type": {
        "coding": [ {
          "system": "https://mips.be/CHUCHAR",
          "code": "SGNAF",
          "display": "Sang total NaF"
        } ]
      },
      "subject": {
        "reference": "Patient/1368877"
      },
      "receivedTime": "2022-09-01T17:09:44+02:00",
      "request": [ {
        "reference": "ServiceRequest/115620801"
      } ],
      "collection": {
        "collectedDateTime": "2022-08-31T11:15:00+02:00"
      }
    }
  }, {
    "fullUrl": "Specimen/1417939103",
    "resource": {
      "resourceType": "Specimen",
      "id": "1417939103",
      "meta": {
        "versionId": "1",
        "profile": [ "https://www.ehealth.fgov.be/standards/fhir/StructureDefinition/be-specimen-laboratory" ]
      },
      "text": {
        "status": "empty",
        "div": "<div xmlns=\"http://www.w3.org/1999/xhtml\">empty</div>"
      },
      "identifier": [ {
        "system": "https://mips.be/CHUCHAR",
        "value": "1417939103"
      } ],
      "status": "unavailable",
      "type": {
        "coding": [ {
          "system": "https://mips.be/CHUCHAR",
          "code": "SGNAF",
          "display": "Sang total NaF"
        } ]
      },
      "subject": {
        "reference": "Patient/1368877"
      },
      "request": [ {
        "reference": "ServiceRequest/115620803"
      } ],
      "collection": {
        "collectedDateTime": "2022-08-31T11:30:00+02:00"
      }
    }
  }, {
    "fullUrl": "Specimen/1417939105",
    "resource": {
      "resourceType": "Specimen",
      "id": "1417939105",
      "meta": {
        "versionId": "1",
        "profile": [ "https://www.ehealth.fgov.be/standards/fhir/StructureDefinition/be-specimen-laboratory" ]
      },
      "text": {
        "status": "empty",
        "div": "<div xmlns=\"http://www.w3.org/1999/xhtml\">empty</div>"
      },
      "identifier": [ {
        "system": "https://mips.be/CHUCHAR",
        "value": "1417939105"
      } ],
      "status": "available",
      "type": {
        "coding": [ {
          "system": "https://mips.be/CHUCHAR",
          "code": "SGNAF",
          "display": "Sang total NaF"
        } ]
      },
      "subject": {
        "reference": "Patient/1368877"
      },
      "receivedTime": "2022-09-01T17:09:55+02:00",
      "request": [ {
        "reference": "ServiceRequest/115620805"
      } ],
      "collection": {
        "collectedDateTime": "2022-08-31T11:45:00+02:00"
      }
    }
  }, {
    "fullUrl": "Specimen/1417939107",
    "resource": {
      "resourceType": "Specimen",
      "id": "1417939107",
      "meta": {
        "versionId": "1",
        "profile": [ "https://www.ehealth.fgov.be/standards/fhir/StructureDefinition/be-specimen-laboratory" ]
      },
      "text": {
        "status": "empty",
        "div": "<div xmlns=\"http://www.w3.org/1999/xhtml\">empty</div>"
      },
      "identifier": [ {
        "system": "https://mips.be/CHUCHAR",
        "value": "1417939107"
      } ],
      "status": "available",
      "type": {
        "coding": [ {
          "system": "https://mips.be/CHUCHAR",
          "code": "SGNAF",
          "display": "Sang total NaF"
        } ]
      },
      "subject": {
        "reference": "Patient/1368877"
      },
      "receivedTime": "2022-09-01T17:10:09+02:00",
      "request": [ {
        "reference": "ServiceRequest/115620807"
      } ],
      "collection": {
        "collectedDateTime": "2022-08-31T12:15:00+02:00"
      }
    }
  }, {
    "fullUrl": "Specimen/1417939109",
    "resource": {
      "resourceType": "Specimen",
      "id": "1417939109",
      "meta": {
        "versionId": "1",
        "profile": [ "https://www.ehealth.fgov.be/standards/fhir/StructureDefinition/be-specimen-laboratory" ]
      },
      "text": {
        "status": "empty",
        "div": "<div xmlns=\"http://www.w3.org/1999/xhtml\">empty</div>"
      },
      "identifier": [ {
        "system": "https://mips.be/CHUCHAR",
        "value": "1417939109"
      } ],
      "status": "available",
      "type": {
        "coding": [ {
          "system": "https://mips.be/CHUCHAR",
          "code": "SGNAF",
          "display": "Sang total NaF"
        } ]
      },
      "subject": {
        "reference": "Patient/1368877"
      },
      "receivedTime": "2022-09-01T17:10:17+02:00",
      "request": [ {
        "reference": "ServiceRequest/115701209"
      } ],
      "collection": {
        "collectedDateTime": "2022-08-31T13:15:00+02:00"
      }
    }
  }, {
    "fullUrl": "Specimen/1417939111",
    "resource": {
      "resourceType": "Specimen",
      "id": "1417939111",
      "meta": {
        "versionId": "1",
        "profile": [ "https://www.ehealth.fgov.be/standards/fhir/StructureDefinition/be-specimen-laboratory" ]
      },
      "text": {
        "status": "empty",
        "div": "<div xmlns=\"http://www.w3.org/1999/xhtml\">empty</div>"
      },
      "identifier": [ {
        "system": "https://mips.be/CHUCHAR",
        "value": "1417939111"
      } ],
      "status": "available",
      "type": {
        "coding": [ {
          "system": "https://mips.be/CHUCHAR",
          "code": "SGNAF",
          "display": "Sang total NaF"
        } ]
      },
      "subject": {
        "reference": "Patient/1368877"
      },
      "receivedTime": "2022-09-01T17:10:49+02:00",
      "request": [ {
        "reference": "ServiceRequest/115701211"
      } ],
      "collection": {
        "collectedDateTime": "2022-08-31T14:15:00+02:00"
      }
    }
  }, {
    "fullUrl": "Specimen/1417939102",
    "resource": {
      "resourceType": "Specimen",
      "id": "1417939102",
      "meta": {
        "versionId": "1",
        "profile": [ "https://www.ehealth.fgov.be/standards/fhir/StructureDefinition/be-specimen-laboratory" ]
      },
      "text": {
        "status": "empty",
        "div": "<div xmlns=\"http://www.w3.org/1999/xhtml\">empty</div>"
      },
      "identifier": [ {
        "system": "https://mips.be/CHUCHAR",
        "value": "1417939102"
      } ],
      "status": "available",
      "type": {
        "coding": [ {
          "system": "https://mips.be/CHUCHAR",
          "code": "SER",
          "display": "Sérum avec gel"
        } ]
      },
      "subject": {
        "reference": "Patient/1368877"
      },
      "receivedTime": "2022-09-01T17:11:24+02:00",
      "request": [ {
        "reference": "ServiceRequest/115620809"
      } ],
      "collection": {
        "collectedDateTime": "2022-08-31T11:15:00+02:00"
      }
    }
  }, {
    "fullUrl": "Specimen/1417939104",
    "resource": {
      "resourceType": "Specimen",
      "id": "1417939104",
      "meta": {
        "versionId": "1",
        "profile": [ "https://www.ehealth.fgov.be/standards/fhir/StructureDefinition/be-specimen-laboratory" ]
      },
      "text": {
        "status": "empty",
        "div": "<div xmlns=\"http://www.w3.org/1999/xhtml\">empty</div>"
      },
      "identifier": [ {
        "system": "https://mips.be/CHUCHAR",
        "value": "1417939104"
      } ],
      "status": "unavailable",
      "type": {
        "coding": [ {
          "system": "https://mips.be/CHUCHAR",
          "code": "SER",
          "display": "Sérum avec gel"
        } ]
      },
      "subject": {
        "reference": "Patient/1368877"
      },
      "request": [ {
        "reference": "ServiceRequest/115620811"
      } ],
      "collection": {
        "collectedDateTime": "2022-08-31T11:30:00+02:00"
      }
    }
  }, {
    "fullUrl": "Specimen/1417939106",
    "resource": {
      "resourceType": "Specimen",
      "id": "1417939106",
      "meta": {
        "versionId": "1",
        "profile": [ "https://www.ehealth.fgov.be/standards/fhir/StructureDefinition/be-specimen-laboratory" ]
      },
      "text": {
        "status": "empty",
        "div": "<div xmlns=\"http://www.w3.org/1999/xhtml\">empty</div>"
      },
      "identifier": [ {
        "system": "https://mips.be/CHUCHAR",
        "value": "1417939106"
      } ],
      "status": "available",
      "type": {
        "coding": [ {
          "system": "https://mips.be/CHUCHAR",
          "code": "SER",
          "display": "Sérum avec gel"
        } ]
      },
      "subject": {
        "reference": "Patient/1368877"
      },
      "receivedTime": "2022-09-01T17:11:28+02:00",
      "request": [ {
        "reference": "ServiceRequest/115620813"
      } ],
      "collection": {
        "collectedDateTime": "2022-08-31T11:45:00+02:00"
      }
    }
  }, {
    "fullUrl": "Specimen/1417939108",
    "resource": {
      "resourceType": "Specimen",
      "id": "1417939108",
      "meta": {
        "versionId": "1",
        "profile": [ "https://www.ehealth.fgov.be/standards/fhir/StructureDefinition/be-specimen-laboratory" ]
      },
      "text": {
        "status": "empty",
        "div": "<div xmlns=\"http://www.w3.org/1999/xhtml\">empty</div>"
      },
      "identifier": [ {
        "system": "https://mips.be/CHUCHAR",
        "value": "1417939108"
      } ],
      "status": "available",
      "type": {
        "coding": [ {
          "system": "https://mips.be/CHUCHAR",
          "code": "SER",
          "display": "Sérum avec gel"
        } ]
      },
      "subject": {
        "reference": "Patient/1368877"
      },
      "receivedTime": "2022-09-01T17:11:32+02:00",
      "request": [ {
        "reference": "ServiceRequest/115620815"
      } ],
      "collection": {
        "collectedDateTime": "2022-08-31T12:15:00+02:00"
      }
    }
  }, {
    "fullUrl": "Specimen/1417939110",
    "resource": {
      "resourceType": "Specimen",
      "id": "1417939110",
      "meta": {
        "versionId": "1",
        "profile": [ "https://www.ehealth.fgov.be/standards/fhir/StructureDefinition/be-specimen-laboratory" ]
      },
      "text": {
        "status": "empty",
        "div": "<div xmlns=\"http://www.w3.org/1999/xhtml\">empty</div>"
      },
      "identifier": [ {
        "system": "https://mips.be/CHUCHAR",
        "value": "1417939110"
      } ],
      "status": "available",
      "type": {
        "coding": [ {
          "system": "https://mips.be/CHUCHAR",
          "code": "SER",
          "display": "Sérum avec gel"
        } ]
      },
      "subject": {
        "reference": "Patient/1368877"
      },
      "receivedTime": "2022-09-01T17:11:40+02:00",
      "request": [ {
        "reference": "ServiceRequest/115701213"
      } ],
      "collection": {
        "collectedDateTime": "2022-08-31T13:15:00+02:00"
      }
    }
  }, {
    "fullUrl": "Specimen/1417939112",
    "resource": {
      "resourceType": "Specimen",
      "id": "1417939112",
      "meta": {
        "versionId": "1",
        "profile": [ "https://www.ehealth.fgov.be/standards/fhir/StructureDefinition/be-specimen-laboratory" ]
      },
      "text": {
        "status": "empty",
        "div": "<div xmlns=\"http://www.w3.org/1999/xhtml\">empty</div>"
      },
      "identifier": [ {
        "system": "https://mips.be/CHUCHAR",
        "value": "1417939112"
      } ],
      "status": "available",
      "type": {
        "coding": [ {
          "system": "https://mips.be/CHUCHAR",
          "code": "SER",
          "display": "Sérum avec gel"
        } ]
      },
      "subject": {
        "reference": "Patient/1368877"
      },
      "receivedTime": "2022-09-01T17:11:44+02:00",
      "request": [ {
        "reference": "ServiceRequest/115701215"
      } ],
      "collection": {
        "collectedDateTime": "2022-08-31T14:15:00+02:00"
      }
    }
  } ]
}