{
  "resourceType": "Bundle",
  "identifier": {
    "system": "https://www.ehealth.fgov.be/hl7/bundle",
    "value": "f907e952-84af-484e-a65c-050092d0ae68"
  },
  "type": "document",
  "timestamp": "2022-04-12T10:59:23.587+02:00",
  "entry": [ {
    "fullUrl": "Composition/35318179",
    "resource": {
      "resourceType": "Composition",
      "id": "35318179",
      "meta": {
        "profile": [ "https://www.ehealth.fgov.be/standards/fhir/lab/StructureDefinition/be-laboratory-report-composition" ]
      },
      "text": {
        "status": "empty",
        "div": "<div xmlns=\"http://www.w3.org/1999/xhtml\">empty</div>"
      },
      "identifier": {
        "system": "https://www.ehealth.fgov.be/lab-report/diagnostic-report-id",
        "value": "f907e952-84af-484e-a65c-050092d0ae68"
      },
      "status": "final",
      "type": {
        "coding": [ {
          "system": "http://loinc.org",
          "code": "11502-2",
          "display": "Laboratory report"
        } ]
      },
      "subject": {
        "reference": "Patient/405636"
      },
      "date": "2022-04-12T10:59:23+02:00",
      "author": [ {
        "reference": "Organization/4335"
      } ],
      "title": "Laboratory Report",
      "section": [ {
        "entry": [ {
          "reference": "DiagnosticReport/35318179"
        } ]
      } ]
    }
  }, {
    "fullUrl": "DiagnosticReport/35318179",
    "resource": {
      "resourceType": "DiagnosticReport",
      "id": "35318179",
      "meta": {
        "versionId": "8",
        "profile": [ "https://www.ehealth.fgov.be/standards/fhir/lab/StructureDefinition/be-laboratory-report" ]
      },
      "text": {
        "status": "empty",
        "div": "<div xmlns=\"http://www.w3.org/1999/xhtml\">empty</div>"
      },
      "identifier": [ {
        "system": "https://www.ehealth.fgov.be/lab-report/diagnostic-report-id",
        "value": "f907e952-84af-484e-a65c-050092d0ae68"
      } ],
      "basedOn": [ {
        "reference": "ServiceRequest/220226-1002"
      } ],
      "status": "final",
      "category": [ {
        "coding": [ {
          "system": "http://terminology.hl7.org/CodeSystem/v2-0074",
          "code": "LAB",
          "display": "Laboratory"
        } ]
      } ],
      "code": {
        "coding": [ {
          "system": "http://loinc.org",
          "code": "11502-2"
        } ],
        "text": "Labo rapport"
      },
      "subject": {
        "reference": "Patient/405636"
      },
      "effectiveDateTime": "2022-04-12T10:59:23+02:00",
      "issued": "2022-02-26T11:05:25.000+01:00",
      "performer": [ {
        "reference": "Organization/4335"
      } ],
      "resultsInterpreter": [ {
        "reference": "Practitioner/65175"
      } ],
      "specimen": [ {
        "reference": "Specimen/220226100201"
      } ],
      "result": [ {
        "reference": "Observation/b3794497-a65f-4016-b82d-ab813aaadc98"
      } ]
    }
  }, {
    "fullUrl": "Patient/405636",
    "resource": {
      "resourceType": "Patient",
      "id": "405636",
      "meta": {
        "versionId": "1",
        "profile": [ "https://www.ehealth.fgov.be/standards/fhir/core/StructureDefinition/be-patient" ]
      },
      "text": {
        "status": "empty",
        "div": "<div xmlns=\"http://www.w3.org/1999/xhtml\">empty</div>"
      },
      "identifier": [ {
        "use": "official",
        "system": "https://www.ehealth.fgov.be/standards/fhir/core/NamingSystem/ssin",
        "value": "11111102504"
      }, {
        "system": "https://www.uzgent.be",
        "value": "111111 054A21"
      }, {
        "system": "http://mips.be/UZGent",
        "value": "19111111XCHN04"
      } ],
      "name": [ {
        "family": "Xchelpdesk",
        "given": [ "Nn" ]
      } ],
      "telecom": [ {
        "system": "phone",
        "value": "092402111"
      }, {
        "system": "phone",
        "value": "04973565151"
      }, {
        "system": "email",
        "value": "debeule.dirk@gmail.com"
      } ],
      "gender": "female",
      "birthDate": "1911-11-11",
      "address": [ {
        "line": [ "Corneel Heymanslaan 10" ],
        "city": "GENT",
        "postalCode": "9000",
        "country": "B"
      } ],
      "generalPractitioner": [ {
        "reference": "Practitioner/147772"
      } ]
    }
  }, {
    "fullUrl": "ServiceRequest/220226-1002",
    "resource": {
      "resourceType": "ServiceRequest",
      "id": "220226-1002",
      "text": {
        "status": "empty",
        "div": "<div xmlns=\"http://www.w3.org/1999/xhtml\">empty</div>"
      },
      "identifier": [ {
        "system": "https://www.uzgent.be",
        "value": "220226-1002"
      } ],
      "status": "active",
      "intent": "order",
      "priority": "routine",
      "subject": {
        "reference": "Patient/405636"
      },
      "authoredOn": "2022-02-26T10:41:00+01:00",
      "requester": {
        "reference": "Practitioner/13783685"
      }
    }
  }, {
    "fullUrl": "Practitioner/147772",
    "resource": {
      "resourceType": "Practitioner",
      "id": "147772",
      "meta": {
        "versionId": "1",
        "profile": [ "https://www.ehealth.fgov.be/standards/fhir/core/StructureDefinition/be-practitioner" ]
      },
      "text": {
        "status": "empty",
        "div": "<div xmlns=\"http://www.w3.org/1999/xhtml\">empty</div>"
      },
      "name": [ {
        "family": "Abs",
        "given": [ "Roger" ],
        "prefix": [ "Dr." ]
      } ],
      "telecom": [ {
        "system": "fax"
      } ],
      "address": [ {
        "line": [ "Bourcetstraat 35" ],
        "city": "BERCHEM (ANTWERPEN)",
        "postalCode": "2600",
        "country": "B"
      } ],
      "gender": "unknown"
    }
  }, {
    "fullUrl": "Practitioner/13783685",
    "resource": {
      "resourceType": "Practitioner",
      "id": "13783685",
      "meta": {
        "versionId": "1",
        "profile": [ "https://www.ehealth.fgov.be/standards/fhir/core/StructureDefinition/be-practitioner" ]
      },
      "text": {
        "status": "empty",
        "div": "<div xmlns=\"http://www.w3.org/1999/xhtml\">empty</div>"
      },
      "name": [ {
        "family": "Fieuws",
        "given": [ "Sarah" ],
        "prefix": [ "Dr." ]
      } ],
      "telecom": [ {
        "system": "email",
        "value": "sarah.fieuws@uzgent.be"
      } ],
      "address": [ {
        "line": [ "Medische oncologie" ],
        "city": "GENT",
        "postalCode": "9000",
        "country": "B"
      } ],
      "gender": "unknown"
    }
  }, {
    "fullUrl": "Practitioner/65175",
    "resource": {
      "resourceType": "Practitioner",
      "id": "65175",
      "meta": {
        "versionId": "1",
        "profile": [ "https://www.ehealth.fgov.be/standards/fhir/core/StructureDefinition/be-practitioner" ]
      },
      "text": {
        "status": "empty",
        "div": "<div xmlns=\"http://www.w3.org/1999/xhtml\">empty</div>"
      },
      "name": [ {
        "family": "Fiers",
        "given": [ "Tom" ],
        "prefix": [ "Dr." ]
      } ],
      "telecom": [ {
        "system": "fax"
      }, {
        "system": "email",
        "value": "tom.fiers@uzgent.be"
      } ],
      "address": [ {
        "line": [ "Klinische biologie UZ Gent" ],
        "city": "GENT",
        "postalCode": "9000",
        "country": "B"
      } ],
      "gender": "unknown"
    }
  }, {
    "fullUrl": "Organization/4335",
    "resource": {
      "resourceType": "Organization",
      "id": "4335",
      "text": {
        "status": "empty",
        "div": "<div xmlns=\"http://www.w3.org/1999/xhtml\">empty</div>"
      },
      "name": "Lab UZGent",
      "telecom": [ {
        "system": "phone",
        "value": "09/2406310"
      }, {
        "system": "fax",
        "value": "092404985"
      } ],
      "address": [ {
        "line": [ "C. Heymanslaan 10" ],
        "city": "GENT",
        "postalCode": "9000",
        "country": "B"
      } ]
    }
  }, {
    "fullUrl": "Observation/b3794497-a65f-4016-b82d-ab813aaadc98",
    "resource": {
      "resourceType": "Observation",
      "id": "b3794497-a65f-4016-b82d-ab813aaadc98",
      "meta": {
        "versionId": "1",
        "profile": [ "https://www.ehealth.fgov.be/standards/fhir/lab/StructureDefinition/be-observation-laboratory" ]
      },
      "text": {
        "status": "empty",
        "div": "<div xmlns=\"http://www.w3.org/1999/xhtml\">empty</div>"
      },
      "status": "unknown",
      "code": {
        "text": "Microbiologie: Urine, midstream-portie                                                                                  Gekend voor :"
      },
      "subject": {
        "reference": "Patient/405636"
      },
      "hasMember": [ {
        "reference": "Observation/de90b34a-b964-4572-82ea-7df132a6abad"
      }, {
        "reference": "Observation/389060301"
      } ]
    }
  }, {
    "fullUrl": "ServiceRequest/275722285",
    "resource": {
      "resourceType": "ServiceRequest",
      "id": "275722285",
      "text": {
        "status": "empty",
        "div": "<div xmlns=\"http://www.w3.org/1999/xhtml\">empty</div>"
      },
      "identifier": [ {
        "system": "https://www.uzgent.be",
        "value": "275722285"
      } ],
      "status": "active",
      "intent": "order",
      "priority": "routine",
      "subject": {
        "reference": "Patient/405636"
      }
    }
  }, {
    "fullUrl": "Observation/229ec7ee-df70-490b-b149-a3ccbd87f7e9",
    "resource": {
      "resourceType": "Observation",
      "id": "229ec7ee-df70-490b-b149-a3ccbd87f7e9",
      "meta": {
        "versionId": "1",
        "profile": [ "https://www.ehealth.fgov.be/standards/fhir/lab/StructureDefinition/be-observation-laboratory" ]
      },
      "text": {
        "status": "empty",
        "div": "<div xmlns=\"http://www.w3.org/1999/xhtml\">empty</div>"
      },
      "status": "final",
      "code": {
        "coding": [ {
          "system": "http://loinc.org",
          "code": "18861-5"
        } ],
        "text": "Amoxicilline (RIS)"
      },
      "subject": {
        "reference": "Patient/405636"
      },
      "issued": "2022-02-26T11:02:08.000+01:00",
      "performer": [ {
        "reference": "Practitioner/65175"
      } ],
      "valueCodeableConcept": {
        "coding": [ {
          "system": "http://terminology.hl7.org/CodeSystem/v3-ObservationInterpretation",
          "code": "R"
        } ]
      }
    }
  }, {
    "fullUrl": "Observation/9d047549-21e1-45fb-823e-0185d7c56da1",
    "resource": {
      "resourceType": "Observation",
      "id": "9d047549-21e1-45fb-823e-0185d7c56da1",
      "meta": {
        "versionId": "1",
        "profile": [ "https://www.ehealth.fgov.be/standards/fhir/lab/StructureDefinition/be-observation-laboratory" ]
      },
      "text": {
        "status": "empty",
        "div": "<div xmlns=\"http://www.w3.org/1999/xhtml\">empty</div>"
      },
      "status": "final",
      "code": {
        "coding": [ {
          "system": "https://www.uzgent.be",
          "code": "AUG"
        } ],
        "text": "Amoxicilline - clavulaanzuur (RIS)"
      },
      "subject": {
        "reference": "Patient/405636"
      },
      "issued": "2022-02-26T11:02:10.000+01:00",
      "performer": [ {
        "reference": "Practitioner/65175"
      } ],
      "valueCodeableConcept": {
        "coding": [ {
          "system": "http://terminology.hl7.org/CodeSystem/v3-ObservationInterpretation",
          "code": "I"
        } ]
      }
    }
  }, {
    "fullUrl": "Observation/5c7e21ff-17b1-4d8b-8e5d-c18f5e0c2e1f",
    "resource": {
      "resourceType": "Observation",
      "id": "5c7e21ff-17b1-4d8b-8e5d-c18f5e0c2e1f",
      "meta": {
        "versionId": "1",
        "profile": [ "https://www.ehealth.fgov.be/standards/fhir/lab/StructureDefinition/be-observation-laboratory" ]
      },
      "text": {
        "status": "empty",
        "div": "<div xmlns=\"http://www.w3.org/1999/xhtml\">empty</div>"
      },
      "status": "final",
      "code": {
        "coding": [ {
          "system": "https://www.uzgent.be",
          "code": "SXT"
        } ],
        "text": "Cotrimoxazol (RIS)"
      },
      "subject": {
        "reference": "Patient/405636"
      },
      "issued": "2022-02-26T11:02:09.000+01:00",
      "performer": [ {
        "reference": "Practitioner/65175"
      } ],
      "valueCodeableConcept": {
        "coding": [ {
          "system": "http://terminology.hl7.org/CodeSystem/v3-ObservationInterpretation",
          "code": "I"
        } ]
      }
    }
  }, {
    "fullUrl": "Observation/7baaca72-8b65-45c5-b8ce-946a1d23051a",
    "resource": {
      "resourceType": "Observation",
      "id": "7baaca72-8b65-45c5-b8ce-946a1d23051a",
      "meta": {
        "versionId": "1",
        "profile": [ "https://www.ehealth.fgov.be/standards/fhir/lab/StructureDefinition/be-observation-laboratory" ]
      },
      "text": {
        "status": "empty",
        "div": "<div xmlns=\"http://www.w3.org/1999/xhtml\">empty</div>"
      },
      "status": "final",
      "code": {
        "coding": [ {
          "system": "https://www.uzgent.be",
          "code": "FURA"
        } ],
        "text": "Nitrofurantoine (RIS)"
      },
      "subject": {
        "reference": "Patient/405636"
      },
      "issued": "2022-02-26T11:02:09.000+01:00",
      "performer": [ {
        "reference": "Practitioner/65175"
      } ],
      "valueCodeableConcept": {
        "coding": [ {
          "system": "http://terminology.hl7.org/CodeSystem/v3-ObservationInterpretation",
          "code": "S"
        } ]
      }
    }
  }, {
    "fullUrl": "Observation/fdad0ca5-5e97-4657-ab98-b39fa796104e",
    "resource": {
      "resourceType": "Observation",
      "id": "fdad0ca5-5e97-4657-ab98-b39fa796104e",
      "meta": {
        "versionId": "1",
        "profile": [ "https://www.ehealth.fgov.be/standards/fhir/lab/StructureDefinition/be-observation-laboratory" ]
      },
      "text": {
        "status": "empty",
        "div": "<div xmlns=\"http://www.w3.org/1999/xhtml\">empty</div>"
      },
      "status": "final",
      "code": {
        "coding": [ {
          "system": "https://www.uzgent.be",
          "code": "CXM"
        } ],
        "text": "Cefuroxim (IV) (RIS)"
      },
      "subject": {
        "reference": "Patient/405636"
      },
      "issued": "2022-02-26T11:02:09.000+01:00",
      "performer": [ {
        "reference": "Practitioner/65175"
      } ],
      "valueCodeableConcept": {
        "coding": [ {
          "system": "http://terminology.hl7.org/CodeSystem/v3-ObservationInterpretation",
          "code": "I"
        } ]
      }
    }
  }, {
    "fullUrl": "Observation/65499496-fccf-467f-84e0-d59c1a7ea522",
    "resource": {
      "resourceType": "Observation",
      "id": "65499496-fccf-467f-84e0-d59c1a7ea522",
      "meta": {
        "versionId": "1",
        "profile": [ "https://www.ehealth.fgov.be/standards/fhir/lab/StructureDefinition/be-observation-laboratory" ]
      },
      "text": {
        "status": "empty",
        "div": "<div xmlns=\"http://www.w3.org/1999/xhtml\">empty</div>"
      },
      "status": "final",
      "code": {
        "coding": [ {
          "system": "https://www.uzgent.be",
          "code": "GEN"
        } ],
        "text": "Gentamycine (RIS)"
      },
      "subject": {
        "reference": "Patient/405636"
      },
      "issued": "2022-02-26T11:02:09.000+01:00",
      "performer": [ {
        "reference": "Practitioner/65175"
      } ],
      "valueCodeableConcept": {
        "coding": [ {
          "system": "http://terminology.hl7.org/CodeSystem/v3-ObservationInterpretation",
          "code": "S"
        } ]
      },
      "note": [ {
        "text": "Enkel combinatietherapie."
      } ]
    }
  }, {
    "fullUrl": "Observation/2114539a-6b2c-41e0-8697-aa00858af022",
    "resource": {
      "resourceType": "Observation",
      "id": "2114539a-6b2c-41e0-8697-aa00858af022",
      "meta": {
        "versionId": "1",
        "profile": [ "https://www.ehealth.fgov.be/standards/fhir/lab/StructureDefinition/be-observation-laboratory" ]
      },
      "text": {
        "status": "empty",
        "div": "<div xmlns=\"http://www.w3.org/1999/xhtml\">empty</div>"
      },
      "status": "final",
      "code": {
        "coding": [ {
          "system": "https://www.uzgent.be",
          "code": "COL"
        } ],
        "text": "Colimycine (RIS)"
      },
      "subject": {
        "reference": "Patient/405636"
      },
      "issued": "2022-02-26T11:02:09.000+01:00",
      "performer": [ {
        "reference": "Practitioner/65175"
      } ],
      "valueCodeableConcept": {
        "coding": [ {
          "system": "http://terminology.hl7.org/CodeSystem/v3-ObservationInterpretation",
          "code": "S"
        } ]
      }
    }
  }, {
    "fullUrl": "Observation/0f915634-fd4f-4c30-8184-0f428e4470f1",
    "resource": {
      "resourceType": "Observation",
      "id": "0f915634-fd4f-4c30-8184-0f428e4470f1",
      "meta": {
        "versionId": "1",
        "profile": [ "https://www.ehealth.fgov.be/standards/fhir/lab/StructureDefinition/be-observation-laboratory" ]
      },
      "text": {
        "status": "empty",
        "div": "<div xmlns=\"http://www.w3.org/1999/xhtml\">empty</div>"
      },
      "status": "final",
      "code": {
        "coding": [ {
          "system": "http://loinc.org",
          "code": "18991-0"
        } ],
        "text": "Temocilline (RIS)"
      },
      "subject": {
        "reference": "Patient/405636"
      },
      "issued": "2022-02-26T11:02:10.000+01:00",
      "performer": [ {
        "reference": "Practitioner/65175"
      } ],
      "valueCodeableConcept": {
        "coding": [ {
          "system": "http://terminology.hl7.org/CodeSystem/v3-ObservationInterpretation",
          "code": "I"
        } ]
      }
    }
  }, {
    "fullUrl": "Observation/2f074180-451c-4510-b392-057ba0268389",
    "resource": {
      "resourceType": "Observation",
      "id": "2f074180-451c-4510-b392-057ba0268389",
      "meta": {
        "versionId": "1",
        "profile": [ "https://www.ehealth.fgov.be/standards/fhir/lab/StructureDefinition/be-observation-laboratory" ]
      },
      "text": {
        "status": "empty",
        "div": "<div xmlns=\"http://www.w3.org/1999/xhtml\">empty</div>"
      },
      "status": "final",
      "code": {
        "coding": [ {
          "system": "https://www.uzgent.be",
          "code": "FOS"
        } ],
        "text": "Fosfomycine (RIS)"
      },
      "subject": {
        "reference": "Patient/405636"
      },
      "issued": "2022-02-26T11:02:09.000+01:00",
      "performer": [ {
        "reference": "Practitioner/65175"
      } ],
      "valueCodeableConcept": {
        "coding": [ {
          "system": "http://terminology.hl7.org/CodeSystem/v3-ObservationInterpretation",
          "code": "I"
        } ]
      }
    }
  }, {
    "fullUrl": "Observation/7a1c622b-6002-4248-975e-8d6169d00b66",
    "resource": {
      "resourceType": "Observation",
      "id": "7a1c622b-6002-4248-975e-8d6169d00b66",
      "meta": {
        "versionId": "1",
        "profile": [ "https://www.ehealth.fgov.be/standards/fhir/lab/StructureDefinition/be-observation-laboratory" ]
      },
      "text": {
        "status": "empty",
        "div": "<div xmlns=\"http://www.w3.org/1999/xhtml\">empty</div>"
      },
      "status": "final",
      "code": {
        "coding": [ {
          "system": "https://www.uzgent.be",
          "code": "OFL"
        } ],
        "text": "Ofloxacine/levofloxacine (RIS)"
      },
      "subject": {
        "reference": "Patient/405636"
      },
      "issued": "2022-02-26T11:02:09.000+01:00",
      "performer": [ {
        "reference": "Practitioner/65175"
      } ],
      "valueCodeableConcept": {
        "coding": [ {
          "system": "http://terminology.hl7.org/CodeSystem/v3-ObservationInterpretation",
          "code": "R"
        } ]
      }
    }
  }, {
    "fullUrl": "Observation/e142940f-1fde-4e8b-a354-dd71c5ff26bb",
    "resource": {
      "resourceType": "Observation",
      "id": "e142940f-1fde-4e8b-a354-dd71c5ff26bb",
      "meta": {
        "versionId": "1",
        "profile": [ "https://www.ehealth.fgov.be/standards/fhir/lab/StructureDefinition/be-observation-laboratory" ]
      },
      "text": {
        "status": "empty",
        "div": "<div xmlns=\"http://www.w3.org/1999/xhtml\">empty</div>"
      },
      "status": "final",
      "code": {
        "coding": [ {
          "system": "https://www.uzgent.be",
          "code": "AMI"
        } ],
        "text": "Amikacine (RIS)"
      },
      "subject": {
        "reference": "Patient/405636"
      },
      "issued": "2022-02-26T11:02:09.000+01:00",
      "performer": [ {
        "reference": "Practitioner/65175"
      } ],
      "valueCodeableConcept": {
        "coding": [ {
          "system": "http://terminology.hl7.org/CodeSystem/v3-ObservationInterpretation",
          "code": "R"
        } ]
      },
      "note": [ {
        "text": "Enkel combinatietherapie."
      } ]
    }
  }, {
    "fullUrl": "Observation/dbf3c1ca-be96-44ae-a23d-8a0498497a0d",
    "resource": {
      "resourceType": "Observation",
      "id": "dbf3c1ca-be96-44ae-a23d-8a0498497a0d",
      "meta": {
        "versionId": "1",
        "profile": [ "https://www.ehealth.fgov.be/standards/fhir/lab/StructureDefinition/be-observation-laboratory" ]
      },
      "text": {
        "status": "empty",
        "div": "<div xmlns=\"http://www.w3.org/1999/xhtml\">empty</div>"
      },
      "status": "final",
      "code": {
        "coding": [ {
          "system": "https://www.uzgent.be",
          "code": "PPT"
        } ],
        "text": "Piperacilline/tazobactam (RIS)"
      },
      "subject": {
        "reference": "Patient/405636"
      },
      "issued": "2022-02-26T11:02:10.000+01:00",
      "performer": [ {
        "reference": "Practitioner/65175"
      } ],
      "valueCodeableConcept": {
        "coding": [ {
          "system": "http://terminology.hl7.org/CodeSystem/v3-ObservationInterpretation",
          "code": "S"
        } ]
      }
    }
  }, {
    "fullUrl": "Observation/2e12439e-5080-46b5-8f87-c2200e4682ee",
    "resource": {
      "resourceType": "Observation",
      "id": "2e12439e-5080-46b5-8f87-c2200e4682ee",
      "meta": {
        "versionId": "1",
        "profile": [ "https://www.ehealth.fgov.be/standards/fhir/lab/StructureDefinition/be-observation-laboratory" ]
      },
      "text": {
        "status": "empty",
        "div": "<div xmlns=\"http://www.w3.org/1999/xhtml\">empty</div>"
      },
      "status": "final",
      "code": {
        "coding": [ {
          "system": "https://www.uzgent.be",
          "code": "CTX"
        } ],
        "text": "Cefotaxim/ceftriaxone (RIS)"
      },
      "subject": {
        "reference": "Patient/405636"
      },
      "issued": "2022-02-26T11:02:09.000+01:00",
      "performer": [ {
        "reference": "Practitioner/65175"
      } ],
      "valueCodeableConcept": {
        "coding": [ {
          "system": "http://terminology.hl7.org/CodeSystem/v3-ObservationInterpretation",
          "code": "R"
        } ]
      }
    }
  }, {
    "fullUrl": "Observation/93c4e25d-da91-48d0-a4cb-e5894da6534f",
    "resource": {
      "resourceType": "Observation",
      "id": "93c4e25d-da91-48d0-a4cb-e5894da6534f",
      "meta": {
        "versionId": "1",
        "profile": [ "https://www.ehealth.fgov.be/standards/fhir/lab/StructureDefinition/be-observation-laboratory" ]
      },
      "text": {
        "status": "empty",
        "div": "<div xmlns=\"http://www.w3.org/1999/xhtml\">empty</div>"
      },
      "status": "final",
      "code": {
        "coding": [ {
          "system": "https://www.uzgent.be",
          "code": "CAZ"
        } ],
        "text": "Ceftazidime (RIS)"
      },
      "subject": {
        "reference": "Patient/405636"
      },
      "issued": "2022-02-26T11:02:10.000+01:00",
      "performer": [ {
        "reference": "Practitioner/65175"
      } ],
      "valueCodeableConcept": {
        "coding": [ {
          "system": "http://terminology.hl7.org/CodeSystem/v3-ObservationInterpretation",
          "code": "S"
        } ]
      }
    }
  }, {
    "fullUrl": "Observation/1227bf2c-591b-4e29-8230-4017b9d2b05e",
    "resource": {
      "resourceType": "Observation",
      "id": "1227bf2c-591b-4e29-8230-4017b9d2b05e",
      "meta": {
        "versionId": "1",
        "profile": [ "https://www.ehealth.fgov.be/standards/fhir/lab/StructureDefinition/be-observation-laboratory" ]
      },
      "text": {
        "status": "empty",
        "div": "<div xmlns=\"http://www.w3.org/1999/xhtml\">empty</div>"
      },
      "status": "final",
      "code": {
        "coding": [ {
          "system": "https://www.uzgent.be",
          "code": "MER"
        } ],
        "text": "Meropenem (RIS)"
      },
      "subject": {
        "reference": "Patient/405636"
      },
      "issued": "2022-02-26T11:02:10.000+01:00",
      "performer": [ {
        "reference": "Practitioner/65175"
      } ],
      "valueCodeableConcept": {
        "coding": [ {
          "system": "http://terminology.hl7.org/CodeSystem/v3-ObservationInterpretation",
          "code": "I"
        } ]
      }
    }
  }, {
    "fullUrl": "Observation/73b9693c-2a5b-411a-a573-5951b3a29ea0",
    "resource": {
      "resourceType": "Observation",
      "id": "73b9693c-2a5b-411a-a573-5951b3a29ea0",
      "meta": {
        "versionId": "1",
        "profile": [ "https://www.ehealth.fgov.be/standards/fhir/lab/StructureDefinition/be-observation-laboratory" ]
      },
      "text": {
        "status": "empty",
        "div": "<div xmlns=\"http://www.w3.org/1999/xhtml\">empty</div>"
      },
      "basedOn": [ {
        "reference": "ServiceRequest/275722285"
      } ],
      "status": "final",
      "code": {
        "coding": [ {
          "system": "http://snomed.info/sct",
          "code": "112283007"
        } ],
        "text": "Escherichia coli"
      },
      "subject": {
        "reference": "Patient/405636"
      },
      "effectiveDateTime": "2022-02-26T10:41:00+01:00",
      "issued": "2022-02-26T11:02:02.000+01:00",
      "performer": [ {
        "reference": "Practitioner/65175"
      } ],
      "valueString": "++",
      "note": [ {
        "text": "Comm EC"
      } ],
      "specimen": {
        "reference": "Specimen/220226100201"
      },
      "hasMember": [ {
        "reference": "Observation/229ec7ee-df70-490b-b149-a3ccbd87f7e9"
      }, {
        "reference": "Observation/9d047549-21e1-45fb-823e-0185d7c56da1"
      }, {
        "reference": "Observation/5c7e21ff-17b1-4d8b-8e5d-c18f5e0c2e1f"
      }, {
        "reference": "Observation/7baaca72-8b65-45c5-b8ce-946a1d23051a"
      }, {
        "reference": "Observation/fdad0ca5-5e97-4657-ab98-b39fa796104e"
      }, {
        "reference": "Observation/65499496-fccf-467f-84e0-d59c1a7ea522"
      }, {
        "reference": "Observation/2114539a-6b2c-41e0-8697-aa00858af022"
      }, {
        "reference": "Observation/0f915634-fd4f-4c30-8184-0f428e4470f1"
      }, {
        "reference": "Observation/2f074180-451c-4510-b392-057ba0268389"
      }, {
        "reference": "Observation/7a1c622b-6002-4248-975e-8d6169d00b66"
      }, {
        "reference": "Observation/e142940f-1fde-4e8b-a354-dd71c5ff26bb"
      }, {
        "reference": "Observation/dbf3c1ca-be96-44ae-a23d-8a0498497a0d"
      }, {
        "reference": "Observation/2e12439e-5080-46b5-8f87-c2200e4682ee"
      }, {
        "reference": "Observation/93c4e25d-da91-48d0-a4cb-e5894da6534f"
      }, {
        "reference": "Observation/1227bf2c-591b-4e29-8230-4017b9d2b05e"
      } ]
    }
  }, {
    "fullUrl": "Observation/0db5341c-859c-4cb8-8aa7-032a6145607a",
    "resource": {
      "resourceType": "Observation",
      "id": "0db5341c-859c-4cb8-8aa7-032a6145607a",
      "meta": {
        "versionId": "1",
        "profile": [ "https://www.ehealth.fgov.be/standards/fhir/lab/StructureDefinition/be-observation-laboratory" ]
      },
      "text": {
        "status": "empty",
        "div": "<div xmlns=\"http://www.w3.org/1999/xhtml\">empty</div>"
      },
      "status": "final",
      "code": {
        "coding": [ {
          "system": "https://www.uzgent.be",
          "code": "MTH",
          "display": "Methicilline"
        } ]
      },
      "subject": {
        "reference": "Patient/405636"
      },
      "issued": "2022-02-26T11:03:32.000+01:00",
      "performer": [ {
        "reference": "Practitioner/65175"
      } ],
      "valueCodeableConcept": {
        "coding": [ {
          "system": "http://terminology.hl7.org/CodeSystem/v3-ObservationInterpretation",
          "code": "R"
        } ]
      }
    }
  }, {
    "fullUrl": "Observation/47c41efd-3bde-40e8-b43d-39507d678465",
    "resource": {
      "resourceType": "Observation",
      "id": "47c41efd-3bde-40e8-b43d-39507d678465",
      "meta": {
        "versionId": "1",
        "profile": [ "https://www.ehealth.fgov.be/standards/fhir/lab/StructureDefinition/be-observation-laboratory" ]
      },
      "text": {
        "status": "empty",
        "div": "<div xmlns=\"http://www.w3.org/1999/xhtml\">empty</div>"
      },
      "status": "final",
      "code": {
        "coding": [ {
          "system": "https://www.uzgent.be",
          "code": "PEN"
        } ],
        "text": "Penicilline (RIS)"
      },
      "subject": {
        "reference": "Patient/405636"
      },
      "issued": "2022-02-26T11:03:33.000+01:00",
      "performer": [ {
        "reference": "Practitioner/65175"
      } ],
      "valueCodeableConcept": {
        "coding": [ {
          "system": "http://terminology.hl7.org/CodeSystem/v3-ObservationInterpretation",
          "code": "S"
        } ]
      }
    }
  }, {
    "fullUrl": "Observation/c1d9233b-cba9-40cd-b4b6-7ba75cc34420",
    "resource": {
      "resourceType": "Observation",
      "id": "c1d9233b-cba9-40cd-b4b6-7ba75cc34420",
      "meta": {
        "versionId": "1",
        "profile": [ "https://www.ehealth.fgov.be/standards/fhir/lab/StructureDefinition/be-observation-laboratory" ]
      },
      "text": {
        "status": "empty",
        "div": "<div xmlns=\"http://www.w3.org/1999/xhtml\">empty</div>"
      },
      "status": "final",
      "code": {
        "coding": [ {
          "system": "https://www.uzgent.be",
          "code": "SXT"
        } ],
        "text": "Cotrimoxazol (RIS)"
      },
      "subject": {
        "reference": "Patient/405636"
      },
      "issued": "2022-02-26T11:03:33.000+01:00",
      "performer": [ {
        "reference": "Practitioner/65175"
      } ],
      "valueCodeableConcept": {
        "coding": [ {
          "system": "http://terminology.hl7.org/CodeSystem/v3-ObservationInterpretation",
          "code": "S"
        } ]
      }
    }
  }, {
    "fullUrl": "Observation/e76eef42-2627-45f1-8094-a96cedfa9fe0",
    "resource": {
      "resourceType": "Observation",
      "id": "e76eef42-2627-45f1-8094-a96cedfa9fe0",
      "meta": {
        "versionId": "1",
        "profile": [ "https://www.ehealth.fgov.be/standards/fhir/lab/StructureDefinition/be-observation-laboratory" ]
      },
      "text": {
        "status": "empty",
        "div": "<div xmlns=\"http://www.w3.org/1999/xhtml\">empty</div>"
      },
      "status": "final",
      "code": {
        "coding": [ {
          "system": "https://www.uzgent.be",
          "code": "ERY"
        } ],
        "text": "Erythromycine (RIS)"
      },
      "subject": {
        "reference": "Patient/405636"
      },
      "issued": "2022-02-26T11:03:34.000+01:00",
      "performer": [ {
        "reference": "Practitioner/65175"
      } ],
      "valueCodeableConcept": {
        "coding": [ {
          "system": "http://terminology.hl7.org/CodeSystem/v3-ObservationInterpretation",
          "code": "S"
        } ]
      }
    }
  }, {
    "fullUrl": "Observation/6c06996e-76aa-4d4c-9328-efa581eee6c8",
    "resource": {
      "resourceType": "Observation",
      "id": "6c06996e-76aa-4d4c-9328-efa581eee6c8",
      "meta": {
        "versionId": "1",
        "profile": [ "https://www.ehealth.fgov.be/standards/fhir/lab/StructureDefinition/be-observation-laboratory" ]
      },
      "text": {
        "status": "empty",
        "div": "<div xmlns=\"http://www.w3.org/1999/xhtml\">empty</div>"
      },
      "status": "final",
      "code": {
        "coding": [ {
          "system": "http://loinc.org",
          "code": "428-3"
        } ],
        "text": "Rifampicine (MIC)"
      },
      "subject": {
        "reference": "Patient/405636"
      },
      "issued": "2022-02-26T11:03:34.000+01:00",
      "performer": [ {
        "reference": "Practitioner/65175"
      } ],
      "valueQuantity": {
        "value": 0.5,
        "system": "http://unitsofmeasure.org",
        "code": "mg/L"
      },
      "note": [ {
        "text": "Enkel combinatietherapie."
      } ]
    }
  }, {
    "fullUrl": "Observation/6abb5a74-1d48-431a-a7a4-5d9b84e06f67",
    "resource": {
      "resourceType": "Observation",
      "id": "6abb5a74-1d48-431a-a7a4-5d9b84e06f67",
      "meta": {
        "versionId": "1",
        "profile": [ "https://www.ehealth.fgov.be/standards/fhir/lab/StructureDefinition/be-observation-laboratory" ]
      },
      "text": {
        "status": "empty",
        "div": "<div xmlns=\"http://www.w3.org/1999/xhtml\">empty</div>"
      },
      "status": "final",
      "code": {
        "coding": [ {
          "system": "https://www.uzgent.be",
          "code": "CLI"
        } ],
        "text": "Clindamycine (RIS)"
      },
      "subject": {
        "reference": "Patient/405636"
      },
      "issued": "2022-02-26T11:03:33.000+01:00",
      "performer": [ {
        "reference": "Practitioner/65175"
      } ],
      "valueCodeableConcept": {
        "coding": [ {
          "system": "http://terminology.hl7.org/CodeSystem/v3-ObservationInterpretation",
          "code": "S"
        } ]
      }
    }
  }, {
    "fullUrl": "Observation/54025cb8-458e-4be4-a724-feb67c18c156",
    "resource": {
      "resourceType": "Observation",
      "id": "54025cb8-458e-4be4-a724-feb67c18c156",
      "meta": {
        "versionId": "1",
        "profile": [ "https://www.ehealth.fgov.be/standards/fhir/lab/StructureDefinition/be-observation-laboratory" ]
      },
      "text": {
        "status": "empty",
        "div": "<div xmlns=\"http://www.w3.org/1999/xhtml\">empty</div>"
      },
      "status": "final",
      "code": {
        "coding": [ {
          "system": "https://www.uzgent.be",
          "code": "GEN"
        } ],
        "text": "Gentamycine (RIS)"
      },
      "subject": {
        "reference": "Patient/405636"
      },
      "issued": "2022-02-26T11:03:34.000+01:00",
      "performer": [ {
        "reference": "Practitioner/65175"
      } ],
      "valueCodeableConcept": {
        "coding": [ {
          "system": "http://terminology.hl7.org/CodeSystem/v3-ObservationInterpretation",
          "code": "S"
        } ]
      },
      "note": [ {
        "text": "Enkel combinatietherapie."
      } ]
    }
  }, {
    "fullUrl": "Observation/d00fef2a-a20f-47a0-a6d8-4e6980d8bed4",
    "resource": {
      "resourceType": "Observation",
      "id": "d00fef2a-a20f-47a0-a6d8-4e6980d8bed4",
      "meta": {
        "versionId": "1",
        "profile": [ "https://www.ehealth.fgov.be/standards/fhir/lab/StructureDefinition/be-observation-laboratory" ]
      },
      "text": {
        "status": "empty",
        "div": "<div xmlns=\"http://www.w3.org/1999/xhtml\">empty</div>"
      },
      "basedOn": [ {
        "reference": "ServiceRequest/275722285"
      } ],
      "status": "final",
      "code": {
        "coding": [ {
          "system": "http://snomed.info/sct",
          "code": "3092008"
        } ],
        "text": "Staphylococcus aureus"
      },
      "subject": {
        "reference": "Patient/405636"
      },
      "effectiveDateTime": "2022-02-26T10:41:00+01:00",
      "issued": "2022-02-26T11:03:26.000+01:00",
      "performer": [ {
        "reference": "Practitioner/65175"
      } ],
      "valueString": "+++",
      "note": [ {
        "text": "Comm SA"
      } ],
      "specimen": {
        "reference": "Specimen/220226100201"
      },
      "hasMember": [ {
        "reference": "Observation/0db5341c-859c-4cb8-8aa7-032a6145607a"
      }, {
        "reference": "Observation/47c41efd-3bde-40e8-b43d-39507d678465"
      }, {
        "reference": "Observation/c1d9233b-cba9-40cd-b4b6-7ba75cc34420"
      }, {
        "reference": "Observation/e76eef42-2627-45f1-8094-a96cedfa9fe0"
      }, {
        "reference": "Observation/6c06996e-76aa-4d4c-9328-efa581eee6c8"
      }, {
        "reference": "Observation/6abb5a74-1d48-431a-a7a4-5d9b84e06f67"
      }, {
        "reference": "Observation/54025cb8-458e-4be4-a724-feb67c18c156"
      } ]
    }
  }, {
    "fullUrl": "Observation/e7c431d5-e2ea-4c27-b271-c07eeb5bdb24",
    "resource": {
      "resourceType": "Observation",
      "id": "e7c431d5-e2ea-4c27-b271-c07eeb5bdb24",
      "meta": {
        "versionId": "1",
        "profile": [ "https://www.ehealth.fgov.be/standards/fhir/lab/StructureDefinition/be-observation-laboratory" ]
      },
      "text": {
        "status": "empty",
        "div": "<div xmlns=\"http://www.w3.org/1999/xhtml\">empty</div>"
      },
      "basedOn": [ {
        "reference": "ServiceRequest/275722285"
      } ],
      "status": "preliminary",
      "code": {
        "coding": [ {
          "system": "http://loinc.org",
          "code": "6463-4"
        } ],
        "text": "Kweek (isolaten, ABgram...)"
      },
      "subject": {
        "reference": "Patient/405636"
      },
      "effectiveDateTime": "2022-02-26T10:41:00+01:00",
      "issued": "2022-02-26T11:04:42.000+01:00",
      "specimen": {
        "reference": "Specimen/220226100201"
      },
      "hasMember": [ {
        "reference": "Observation/73b9693c-2a5b-411a-a573-5951b3a29ea0"
      }, {
        "reference": "Observation/d00fef2a-a20f-47a0-a6d8-4e6980d8bed4"
      } ]
    }
  }, {
    "fullUrl": "Observation/7e7cda1e-d2b9-4cb2-8adb-8a0faf2997eb",
    "resource": {
      "resourceType": "Observation",
      "id": "7e7cda1e-d2b9-4cb2-8adb-8a0faf2997eb",
      "meta": {
        "versionId": "1",
        "profile": [ "https://www.ehealth.fgov.be/standards/fhir/lab/StructureDefinition/be-observation-laboratory" ]
      },
      "text": {
        "status": "empty",
        "div": "<div xmlns=\"http://www.w3.org/1999/xhtml\">empty</div>"
      },
      "status": "final",
      "code": {
        "coding": [ {
          "system": "http://loinc.org",
          "code": "18861-5"
        } ],
        "text": "Amoxicilline (RIS)"
      },
      "subject": {
        "reference": "Patient/405636"
      },
      "issued": "2022-02-26T11:02:08.000+01:00",
      "performer": [ {
        "reference": "Practitioner/65175"
      } ],
      "valueCodeableConcept": {
        "coding": [ {
          "system": "http://terminology.hl7.org/CodeSystem/v3-ObservationInterpretation",
          "code": "R"
        } ]
      }
    }
  }, {
    "fullUrl": "Observation/01f98080-152e-4717-a868-41166e1c8b24",
    "resource": {
      "resourceType": "Observation",
      "id": "01f98080-152e-4717-a868-41166e1c8b24",
      "meta": {
        "versionId": "1",
        "profile": [ "https://www.ehealth.fgov.be/standards/fhir/lab/StructureDefinition/be-observation-laboratory" ]
      },
      "text": {
        "status": "empty",
        "div": "<div xmlns=\"http://www.w3.org/1999/xhtml\">empty</div>"
      },
      "status": "final",
      "code": {
        "coding": [ {
          "system": "https://www.uzgent.be",
          "code": "AUG"
        } ],
        "text": "Amoxicilline - clavulaanzuur (RIS)"
      },
      "subject": {
        "reference": "Patient/405636"
      },
      "issued": "2022-02-26T11:02:10.000+01:00",
      "performer": [ {
        "reference": "Practitioner/65175"
      } ],
      "valueCodeableConcept": {
        "coding": [ {
          "system": "http://terminology.hl7.org/CodeSystem/v3-ObservationInterpretation",
          "code": "I"
        } ]
      }
    }
  }, {
    "fullUrl": "Observation/83120076-d0a2-4b38-b688-ad18a32b753e",
    "resource": {
      "resourceType": "Observation",
      "id": "83120076-d0a2-4b38-b688-ad18a32b753e",
      "meta": {
        "versionId": "1",
        "profile": [ "https://www.ehealth.fgov.be/standards/fhir/lab/StructureDefinition/be-observation-laboratory" ]
      },
      "text": {
        "status": "empty",
        "div": "<div xmlns=\"http://www.w3.org/1999/xhtml\">empty</div>"
      },
      "status": "final",
      "code": {
        "coding": [ {
          "system": "https://www.uzgent.be",
          "code": "SXT"
        } ],
        "text": "Cotrimoxazol (RIS)"
      },
      "subject": {
        "reference": "Patient/405636"
      },
      "issued": "2022-02-26T11:02:09.000+01:00",
      "performer": [ {
        "reference": "Practitioner/65175"
      } ],
      "valueCodeableConcept": {
        "coding": [ {
          "system": "http://terminology.hl7.org/CodeSystem/v3-ObservationInterpretation",
          "code": "I"
        } ]
      }
    }
  }, {
    "fullUrl": "Observation/819d6f0d-e796-43f8-83b6-bbf5e05ed426",
    "resource": {
      "resourceType": "Observation",
      "id": "819d6f0d-e796-43f8-83b6-bbf5e05ed426",
      "meta": {
        "versionId": "1",
        "profile": [ "https://www.ehealth.fgov.be/standards/fhir/lab/StructureDefinition/be-observation-laboratory" ]
      },
      "text": {
        "status": "empty",
        "div": "<div xmlns=\"http://www.w3.org/1999/xhtml\">empty</div>"
      },
      "status": "final",
      "code": {
        "coding": [ {
          "system": "https://www.uzgent.be",
          "code": "FURA"
        } ],
        "text": "Nitrofurantoine (RIS)"
      },
      "subject": {
        "reference": "Patient/405636"
      },
      "issued": "2022-02-26T11:02:09.000+01:00",
      "performer": [ {
        "reference": "Practitioner/65175"
      } ],
      "valueCodeableConcept": {
        "coding": [ {
          "system": "http://terminology.hl7.org/CodeSystem/v3-ObservationInterpretation",
          "code": "S"
        } ]
      }
    }
  }, {
    "fullUrl": "Observation/59580eba-f089-4f3c-8f25-8e0a1131aa62",
    "resource": {
      "resourceType": "Observation",
      "id": "59580eba-f089-4f3c-8f25-8e0a1131aa62",
      "meta": {
        "versionId": "1",
        "profile": [ "https://www.ehealth.fgov.be/standards/fhir/lab/StructureDefinition/be-observation-laboratory" ]
      },
      "text": {
        "status": "empty",
        "div": "<div xmlns=\"http://www.w3.org/1999/xhtml\">empty</div>"
      },
      "status": "final",
      "code": {
        "coding": [ {
          "system": "https://www.uzgent.be",
          "code": "CXM"
        } ],
        "text": "Cefuroxim (IV) (RIS)"
      },
      "subject": {
        "reference": "Patient/405636"
      },
      "issued": "2022-02-26T11:02:09.000+01:00",
      "performer": [ {
        "reference": "Practitioner/65175"
      } ],
      "valueCodeableConcept": {
        "coding": [ {
          "system": "http://terminology.hl7.org/CodeSystem/v3-ObservationInterpretation",
          "code": "I"
        } ]
      }
    }
  }, {
    "fullUrl": "Observation/6369ac3d-e3ca-498f-bfbe-9d463134716e",
    "resource": {
      "resourceType": "Observation",
      "id": "6369ac3d-e3ca-498f-bfbe-9d463134716e",
      "meta": {
        "versionId": "1",
        "profile": [ "https://www.ehealth.fgov.be/standards/fhir/lab/StructureDefinition/be-observation-laboratory" ]
      },
      "text": {
        "status": "empty",
        "div": "<div xmlns=\"http://www.w3.org/1999/xhtml\">empty</div>"
      },
      "status": "final",
      "code": {
        "coding": [ {
          "system": "https://www.uzgent.be",
          "code": "GEN"
        } ],
        "text": "Gentamycine (RIS)"
      },
      "subject": {
        "reference": "Patient/405636"
      },
      "issued": "2022-02-26T11:02:09.000+01:00",
      "performer": [ {
        "reference": "Practitioner/65175"
      } ],
      "valueCodeableConcept": {
        "coding": [ {
          "system": "http://terminology.hl7.org/CodeSystem/v3-ObservationInterpretation",
          "code": "S"
        } ]
      },
      "note": [ {
        "text": "Enkel combinatietherapie."
      } ]
    }
  }, {
    "fullUrl": "Observation/5e199285-8e74-48dd-af8e-1bc6069b881a",
    "resource": {
      "resourceType": "Observation",
      "id": "5e199285-8e74-48dd-af8e-1bc6069b881a",
      "meta": {
        "versionId": "1",
        "profile": [ "https://www.ehealth.fgov.be/standards/fhir/lab/StructureDefinition/be-observation-laboratory" ]
      },
      "text": {
        "status": "empty",
        "div": "<div xmlns=\"http://www.w3.org/1999/xhtml\">empty</div>"
      },
      "status": "final",
      "code": {
        "coding": [ {
          "system": "https://www.uzgent.be",
          "code": "COL"
        } ],
        "text": "Colimycine (RIS)"
      },
      "subject": {
        "reference": "Patient/405636"
      },
      "issued": "2022-02-26T11:02:09.000+01:00",
      "performer": [ {
        "reference": "Practitioner/65175"
      } ],
      "valueCodeableConcept": {
        "coding": [ {
          "system": "http://terminology.hl7.org/CodeSystem/v3-ObservationInterpretation",
          "code": "S"
        } ]
      }
    }
  }, {
    "fullUrl": "Observation/a92f6f12-80fe-43d9-869c-c9518a2b487b",
    "resource": {
      "resourceType": "Observation",
      "id": "a92f6f12-80fe-43d9-869c-c9518a2b487b",
      "meta": {
        "versionId": "1",
        "profile": [ "https://www.ehealth.fgov.be/standards/fhir/lab/StructureDefinition/be-observation-laboratory" ]
      },
      "text": {
        "status": "empty",
        "div": "<div xmlns=\"http://www.w3.org/1999/xhtml\">empty</div>"
      },
      "status": "final",
      "code": {
        "coding": [ {
          "system": "http://loinc.org",
          "code": "18991-0"
        } ],
        "text": "Temocilline (RIS)"
      },
      "subject": {
        "reference": "Patient/405636"
      },
      "issued": "2022-02-26T11:02:10.000+01:00",
      "performer": [ {
        "reference": "Practitioner/65175"
      } ],
      "valueCodeableConcept": {
        "coding": [ {
          "system": "http://terminology.hl7.org/CodeSystem/v3-ObservationInterpretation",
          "code": "I"
        } ]
      }
    }
  }, {
    "fullUrl": "Observation/905be5f8-a6c5-4841-9f59-e3e438e9535e",
    "resource": {
      "resourceType": "Observation",
      "id": "905be5f8-a6c5-4841-9f59-e3e438e9535e",
      "meta": {
        "versionId": "1",
        "profile": [ "https://www.ehealth.fgov.be/standards/fhir/lab/StructureDefinition/be-observation-laboratory" ]
      },
      "text": {
        "status": "empty",
        "div": "<div xmlns=\"http://www.w3.org/1999/xhtml\">empty</div>"
      },
      "status": "final",
      "code": {
        "coding": [ {
          "system": "https://www.uzgent.be",
          "code": "FOS"
        } ],
        "text": "Fosfomycine (RIS)"
      },
      "subject": {
        "reference": "Patient/405636"
      },
      "issued": "2022-02-26T11:02:09.000+01:00",
      "performer": [ {
        "reference": "Practitioner/65175"
      } ],
      "valueCodeableConcept": {
        "coding": [ {
          "system": "http://terminology.hl7.org/CodeSystem/v3-ObservationInterpretation",
          "code": "I"
        } ]
      }
    }
  }, {
    "fullUrl": "Observation/f560dbb4-e7ad-4bde-a813-e801d69853ad",
    "resource": {
      "resourceType": "Observation",
      "id": "f560dbb4-e7ad-4bde-a813-e801d69853ad",
      "meta": {
        "versionId": "1",
        "profile": [ "https://www.ehealth.fgov.be/standards/fhir/lab/StructureDefinition/be-observation-laboratory" ]
      },
      "text": {
        "status": "empty",
        "div": "<div xmlns=\"http://www.w3.org/1999/xhtml\">empty</div>"
      },
      "status": "final",
      "code": {
        "coding": [ {
          "system": "https://www.uzgent.be",
          "code": "OFL"
        } ],
        "text": "Ofloxacine/levofloxacine (RIS)"
      },
      "subject": {
        "reference": "Patient/405636"
      },
      "issued": "2022-02-26T11:02:09.000+01:00",
      "performer": [ {
        "reference": "Practitioner/65175"
      } ],
      "valueCodeableConcept": {
        "coding": [ {
          "system": "http://terminology.hl7.org/CodeSystem/v3-ObservationInterpretation",
          "code": "R"
        } ]
      }
    }
  }, {
    "fullUrl": "Observation/57ded36e-6792-4a4b-bbda-31fd1a5bf865",
    "resource": {
      "resourceType": "Observation",
      "id": "57ded36e-6792-4a4b-bbda-31fd1a5bf865",
      "meta": {
        "versionId": "1",
        "profile": [ "https://www.ehealth.fgov.be/standards/fhir/lab/StructureDefinition/be-observation-laboratory" ]
      },
      "text": {
        "status": "empty",
        "div": "<div xmlns=\"http://www.w3.org/1999/xhtml\">empty</div>"
      },
      "status": "final",
      "code": {
        "coding": [ {
          "system": "https://www.uzgent.be",
          "code": "AMI"
        } ],
        "text": "Amikacine (RIS)"
      },
      "subject": {
        "reference": "Patient/405636"
      },
      "issued": "2022-02-26T11:02:09.000+01:00",
      "performer": [ {
        "reference": "Practitioner/65175"
      } ],
      "valueCodeableConcept": {
        "coding": [ {
          "system": "http://terminology.hl7.org/CodeSystem/v3-ObservationInterpretation",
          "code": "R"
        } ]
      },
      "note": [ {
        "text": "Enkel combinatietherapie."
      } ]
    }
  }, {
    "fullUrl": "Observation/559d182f-bdbe-467d-a814-ca570c811d90",
    "resource": {
      "resourceType": "Observation",
      "id": "559d182f-bdbe-467d-a814-ca570c811d90",
      "meta": {
        "versionId": "1",
        "profile": [ "https://www.ehealth.fgov.be/standards/fhir/lab/StructureDefinition/be-observation-laboratory" ]
      },
      "text": {
        "status": "empty",
        "div": "<div xmlns=\"http://www.w3.org/1999/xhtml\">empty</div>"
      },
      "status": "final",
      "code": {
        "coding": [ {
          "system": "https://www.uzgent.be",
          "code": "PPT"
        } ],
        "text": "Piperacilline/tazobactam (RIS)"
      },
      "subject": {
        "reference": "Patient/405636"
      },
      "issued": "2022-02-26T11:02:10.000+01:00",
      "performer": [ {
        "reference": "Practitioner/65175"
      } ],
      "valueCodeableConcept": {
        "coding": [ {
          "system": "http://terminology.hl7.org/CodeSystem/v3-ObservationInterpretation",
          "code": "S"
        } ]
      }
    }
  }, {
    "fullUrl": "Observation/39d1ee9a-d3f9-43dc-8634-a6a1a7c3fca1",
    "resource": {
      "resourceType": "Observation",
      "id": "39d1ee9a-d3f9-43dc-8634-a6a1a7c3fca1",
      "meta": {
        "versionId": "1",
        "profile": [ "https://www.ehealth.fgov.be/standards/fhir/lab/StructureDefinition/be-observation-laboratory" ]
      },
      "text": {
        "status": "empty",
        "div": "<div xmlns=\"http://www.w3.org/1999/xhtml\">empty</div>"
      },
      "status": "final",
      "code": {
        "coding": [ {
          "system": "https://www.uzgent.be",
          "code": "CTX"
        } ],
        "text": "Cefotaxim/ceftriaxone (RIS)"
      },
      "subject": {
        "reference": "Patient/405636"
      },
      "issued": "2022-02-26T11:02:09.000+01:00",
      "performer": [ {
        "reference": "Practitioner/65175"
      } ],
      "valueCodeableConcept": {
        "coding": [ {
          "system": "http://terminology.hl7.org/CodeSystem/v3-ObservationInterpretation",
          "code": "R"
        } ]
      }
    }
  }, {
    "fullUrl": "Observation/6d6ec852-d1c1-4ec0-abd8-45fe963bc4b7",
    "resource": {
      "resourceType": "Observation",
      "id": "6d6ec852-d1c1-4ec0-abd8-45fe963bc4b7",
      "meta": {
        "versionId": "1",
        "profile": [ "https://www.ehealth.fgov.be/standards/fhir/lab/StructureDefinition/be-observation-laboratory" ]
      },
      "text": {
        "status": "empty",
        "div": "<div xmlns=\"http://www.w3.org/1999/xhtml\">empty</div>"
      },
      "status": "final",
      "code": {
        "coding": [ {
          "system": "https://www.uzgent.be",
          "code": "CAZ"
        } ],
        "text": "Ceftazidime (RIS)"
      },
      "subject": {
        "reference": "Patient/405636"
      },
      "issued": "2022-02-26T11:02:10.000+01:00",
      "performer": [ {
        "reference": "Practitioner/65175"
      } ],
      "valueCodeableConcept": {
        "coding": [ {
          "system": "http://terminology.hl7.org/CodeSystem/v3-ObservationInterpretation",
          "code": "S"
        } ]
      }
    }
  }, {
    "fullUrl": "Observation/7f7821f0-765d-4a38-a9ce-f419a5f150ac",
    "resource": {
      "resourceType": "Observation",
      "id": "7f7821f0-765d-4a38-a9ce-f419a5f150ac",
      "meta": {
        "versionId": "1",
        "profile": [ "https://www.ehealth.fgov.be/standards/fhir/lab/StructureDefinition/be-observation-laboratory" ]
      },
      "text": {
        "status": "empty",
        "div": "<div xmlns=\"http://www.w3.org/1999/xhtml\">empty</div>"
      },
      "status": "final",
      "code": {
        "coding": [ {
          "system": "https://www.uzgent.be",
          "code": "MER"
        } ],
        "text": "Meropenem (RIS)"
      },
      "subject": {
        "reference": "Patient/405636"
      },
      "issued": "2022-02-26T11:02:10.000+01:00",
      "performer": [ {
        "reference": "Practitioner/65175"
      } ],
      "valueCodeableConcept": {
        "coding": [ {
          "system": "http://terminology.hl7.org/CodeSystem/v3-ObservationInterpretation",
          "code": "I"
        } ]
      }
    }
  }, {
    "fullUrl": "Observation/f957d01b-3d55-4fef-a5ec-dcaa19ef8069",
    "resource": {
      "resourceType": "Observation",
      "id": "f957d01b-3d55-4fef-a5ec-dcaa19ef8069",
      "meta": {
        "versionId": "1",
        "profile": [ "https://www.ehealth.fgov.be/standards/fhir/lab/StructureDefinition/be-observation-laboratory" ]
      },
      "text": {
        "status": "empty",
        "div": "<div xmlns=\"http://www.w3.org/1999/xhtml\">empty</div>"
      },
      "basedOn": [ {
        "reference": "ServiceRequest/275722285"
      } ],
      "status": "final",
      "code": {
        "coding": [ {
          "system": "http://snomed.info/sct",
          "code": "112283007"
        } ],
        "text": "Escherichia coli"
      },
      "subject": {
        "reference": "Patient/405636"
      },
      "effectiveDateTime": "2022-02-26T10:41:00+01:00",
      "issued": "2022-02-26T11:02:02.000+01:00",
      "performer": [ {
        "reference": "Practitioner/65175"
      } ],
      "valueString": "++",
      "note": [ {
        "text": "Comm EC"
      } ],
      "specimen": {
        "reference": "Specimen/220226100201"
      },
      "hasMember": [ {
        "reference": "Observation/7e7cda1e-d2b9-4cb2-8adb-8a0faf2997eb"
      }, {
        "reference": "Observation/01f98080-152e-4717-a868-41166e1c8b24"
      }, {
        "reference": "Observation/83120076-d0a2-4b38-b688-ad18a32b753e"
      }, {
        "reference": "Observation/819d6f0d-e796-43f8-83b6-bbf5e05ed426"
      }, {
        "reference": "Observation/59580eba-f089-4f3c-8f25-8e0a1131aa62"
      }, {
        "reference": "Observation/6369ac3d-e3ca-498f-bfbe-9d463134716e"
      }, {
        "reference": "Observation/5e199285-8e74-48dd-af8e-1bc6069b881a"
      }, {
        "reference": "Observation/a92f6f12-80fe-43d9-869c-c9518a2b487b"
      }, {
        "reference": "Observation/905be5f8-a6c5-4841-9f59-e3e438e9535e"
      }, {
        "reference": "Observation/f560dbb4-e7ad-4bde-a813-e801d69853ad"
      }, {
        "reference": "Observation/57ded36e-6792-4a4b-bbda-31fd1a5bf865"
      }, {
        "reference": "Observation/559d182f-bdbe-467d-a814-ca570c811d90"
      }, {
        "reference": "Observation/39d1ee9a-d3f9-43dc-8634-a6a1a7c3fca1"
      }, {
        "reference": "Observation/6d6ec852-d1c1-4ec0-abd8-45fe963bc4b7"
      }, {
        "reference": "Observation/7f7821f0-765d-4a38-a9ce-f419a5f150ac"
      } ]
    }
  }, {
    "fullUrl": "Observation/7a8e89d8-975d-41d3-9396-b1951058e9e0",
    "resource": {
      "resourceType": "Observation",
      "id": "7a8e89d8-975d-41d3-9396-b1951058e9e0",
      "meta": {
        "versionId": "1",
        "profile": [ "https://www.ehealth.fgov.be/standards/fhir/lab/StructureDefinition/be-observation-laboratory" ]
      },
      "text": {
        "status": "empty",
        "div": "<div xmlns=\"http://www.w3.org/1999/xhtml\">empty</div>"
      },
      "status": "final",
      "code": {
        "coding": [ {
          "system": "https://www.uzgent.be",
          "code": "MTH",
          "display": "Methicilline"
        } ]
      },
      "subject": {
        "reference": "Patient/405636"
      },
      "issued": "2022-02-26T11:03:32.000+01:00",
      "performer": [ {
        "reference": "Practitioner/65175"
      } ],
      "valueCodeableConcept": {
        "coding": [ {
          "system": "http://terminology.hl7.org/CodeSystem/v3-ObservationInterpretation",
          "code": "R"
        } ]
      }
    }
  }, {
    "fullUrl": "Observation/a035e087-1944-4d30-872f-b9f7e7038985",
    "resource": {
      "resourceType": "Observation",
      "id": "a035e087-1944-4d30-872f-b9f7e7038985",
      "meta": {
        "versionId": "1",
        "profile": [ "https://www.ehealth.fgov.be/standards/fhir/lab/StructureDefinition/be-observation-laboratory" ]
      },
      "text": {
        "status": "empty",
        "div": "<div xmlns=\"http://www.w3.org/1999/xhtml\">empty</div>"
      },
      "status": "final",
      "code": {
        "coding": [ {
          "system": "https://www.uzgent.be",
          "code": "PEN"
        } ],
        "text": "Penicilline (RIS)"
      },
      "subject": {
        "reference": "Patient/405636"
      },
      "issued": "2022-02-26T11:03:33.000+01:00",
      "performer": [ {
        "reference": "Practitioner/65175"
      } ],
      "valueCodeableConcept": {
        "coding": [ {
          "system": "http://terminology.hl7.org/CodeSystem/v3-ObservationInterpretation",
          "code": "S"
        } ]
      }
    }
  }, {
    "fullUrl": "Observation/5afb8c28-567e-4478-bb52-4a1c382cf2d3",
    "resource": {
      "resourceType": "Observation",
      "id": "5afb8c28-567e-4478-bb52-4a1c382cf2d3",
      "meta": {
        "versionId": "1",
        "profile": [ "https://www.ehealth.fgov.be/standards/fhir/lab/StructureDefinition/be-observation-laboratory" ]
      },
      "text": {
        "status": "empty",
        "div": "<div xmlns=\"http://www.w3.org/1999/xhtml\">empty</div>"
      },
      "status": "final",
      "code": {
        "coding": [ {
          "system": "https://www.uzgent.be",
          "code": "SXT"
        } ],
        "text": "Cotrimoxazol (RIS)"
      },
      "subject": {
        "reference": "Patient/405636"
      },
      "issued": "2022-02-26T11:03:33.000+01:00",
      "performer": [ {
        "reference": "Practitioner/65175"
      } ],
      "valueCodeableConcept": {
        "coding": [ {
          "system": "http://terminology.hl7.org/CodeSystem/v3-ObservationInterpretation",
          "code": "S"
        } ]
      }
    }
  }, {
    "fullUrl": "Observation/8a01a853-e9bf-4932-b911-e27fd31b76d9",
    "resource": {
      "resourceType": "Observation",
      "id": "8a01a853-e9bf-4932-b911-e27fd31b76d9",
      "meta": {
        "versionId": "1",
        "profile": [ "https://www.ehealth.fgov.be/standards/fhir/lab/StructureDefinition/be-observation-laboratory" ]
      },
      "text": {
        "status": "empty",
        "div": "<div xmlns=\"http://www.w3.org/1999/xhtml\">empty</div>"
      },
      "status": "final",
      "code": {
        "coding": [ {
          "system": "https://www.uzgent.be",
          "code": "ERY"
        } ],
        "text": "Erythromycine (RIS)"
      },
      "subject": {
        "reference": "Patient/405636"
      },
      "issued": "2022-02-26T11:03:34.000+01:00",
      "performer": [ {
        "reference": "Practitioner/65175"
      } ],
      "valueCodeableConcept": {
        "coding": [ {
          "system": "http://terminology.hl7.org/CodeSystem/v3-ObservationInterpretation",
          "code": "S"
        } ]
      }
    }
  }, {
    "fullUrl": "Observation/4144daa4-1630-4a0f-9bec-3b197f14979b",
    "resource": {
      "resourceType": "Observation",
      "id": "4144daa4-1630-4a0f-9bec-3b197f14979b",
      "meta": {
        "versionId": "1",
        "profile": [ "https://www.ehealth.fgov.be/standards/fhir/lab/StructureDefinition/be-observation-laboratory" ]
      },
      "text": {
        "status": "empty",
        "div": "<div xmlns=\"http://www.w3.org/1999/xhtml\">empty</div>"
      },
      "status": "final",
      "code": {
        "coding": [ {
          "system": "http://loinc.org",
          "code": "428-3"
        } ],
        "text": "Rifampicine (MIC)"
      },
      "subject": {
        "reference": "Patient/405636"
      },
      "issued": "2022-02-26T11:03:34.000+01:00",
      "performer": [ {
        "reference": "Practitioner/65175"
      } ],
      "valueQuantity": {
        "value": 0.5,
        "system": "http://unitsofmeasure.org",
        "code": "mg/L"
      },
      "note": [ {
        "text": "Enkel combinatietherapie."
      } ]
    }
  }, {
    "fullUrl": "Observation/1f60212c-6a91-4a61-93f8-36e275609194",
    "resource": {
      "resourceType": "Observation",
      "id": "1f60212c-6a91-4a61-93f8-36e275609194",
      "meta": {
        "versionId": "1",
        "profile": [ "https://www.ehealth.fgov.be/standards/fhir/lab/StructureDefinition/be-observation-laboratory" ]
      },
      "text": {
        "status": "empty",
        "div": "<div xmlns=\"http://www.w3.org/1999/xhtml\">empty</div>"
      },
      "status": "final",
      "code": {
        "coding": [ {
          "system": "https://www.uzgent.be",
          "code": "CLI"
        } ],
        "text": "Clindamycine (RIS)"
      },
      "subject": {
        "reference": "Patient/405636"
      },
      "issued": "2022-02-26T11:03:33.000+01:00",
      "performer": [ {
        "reference": "Practitioner/65175"
      } ],
      "valueCodeableConcept": {
        "coding": [ {
          "system": "http://terminology.hl7.org/CodeSystem/v3-ObservationInterpretation",
          "code": "S"
        } ]
      }
    }
  }, {
    "fullUrl": "Observation/9889b9d3-ffdf-489f-a411-0de639c9cb8a",
    "resource": {
      "resourceType": "Observation",
      "id": "9889b9d3-ffdf-489f-a411-0de639c9cb8a",
      "meta": {
        "versionId": "1",
        "profile": [ "https://www.ehealth.fgov.be/standards/fhir/lab/StructureDefinition/be-observation-laboratory" ]
      },
      "text": {
        "status": "empty",
        "div": "<div xmlns=\"http://www.w3.org/1999/xhtml\">empty</div>"
      },
      "status": "final",
      "code": {
        "coding": [ {
          "system": "https://www.uzgent.be",
          "code": "GEN"
        } ],
        "text": "Gentamycine (RIS)"
      },
      "subject": {
        "reference": "Patient/405636"
      },
      "issued": "2022-02-26T11:03:34.000+01:00",
      "performer": [ {
        "reference": "Practitioner/65175"
      } ],
      "valueCodeableConcept": {
        "coding": [ {
          "system": "http://terminology.hl7.org/CodeSystem/v3-ObservationInterpretation",
          "code": "S"
        } ]
      },
      "note": [ {
        "text": "Enkel combinatietherapie."
      } ]
    }
  }, {
    "fullUrl": "Observation/d1ceb80d-e585-448e-ad67-db5fb487c9cc",
    "resource": {
      "resourceType": "Observation",
      "id": "d1ceb80d-e585-448e-ad67-db5fb487c9cc",
      "meta": {
        "versionId": "1",
        "profile": [ "https://www.ehealth.fgov.be/standards/fhir/lab/StructureDefinition/be-observation-laboratory" ]
      },
      "text": {
        "status": "empty",
        "div": "<div xmlns=\"http://www.w3.org/1999/xhtml\">empty</div>"
      },
      "basedOn": [ {
        "reference": "ServiceRequest/275722285"
      } ],
      "status": "final",
      "code": {
        "coding": [ {
          "system": "http://snomed.info/sct",
          "code": "3092008"
        } ],
        "text": "Staphylococcus aureus"
      },
      "subject": {
        "reference": "Patient/405636"
      },
      "effectiveDateTime": "2022-02-26T10:41:00+01:00",
      "issued": "2022-02-26T11:03:26.000+01:00",
      "performer": [ {
        "reference": "Practitioner/65175"
      } ],
      "valueString": "+++",
      "note": [ {
        "text": "Comm SA"
      } ],
      "specimen": {
        "reference": "Specimen/220226100201"
      },
      "hasMember": [ {
        "reference": "Observation/7a8e89d8-975d-41d3-9396-b1951058e9e0"
      }, {
        "reference": "Observation/a035e087-1944-4d30-872f-b9f7e7038985"
      }, {
        "reference": "Observation/5afb8c28-567e-4478-bb52-4a1c382cf2d3"
      }, {
        "reference": "Observation/8a01a853-e9bf-4932-b911-e27fd31b76d9"
      }, {
        "reference": "Observation/4144daa4-1630-4a0f-9bec-3b197f14979b"
      }, {
        "reference": "Observation/1f60212c-6a91-4a61-93f8-36e275609194"
      }, {
        "reference": "Observation/9889b9d3-ffdf-489f-a411-0de639c9cb8a"
      } ]
    }
  }, {
    "fullUrl": "Observation/de90b34a-b964-4572-82ea-7df132a6abad",
    "resource": {
      "resourceType": "Observation",
      "id": "de90b34a-b964-4572-82ea-7df132a6abad",
      "meta": {
        "versionId": "1",
        "profile": [ "https://www.ehealth.fgov.be/standards/fhir/lab/StructureDefinition/be-observation-laboratory" ]
      },
      "text": {
        "status": "empty",
        "div": "<div xmlns=\"http://www.w3.org/1999/xhtml\">empty</div>"
      },
      "basedOn": [ {
        "reference": "ServiceRequest/275722285"
      } ],
      "status": "preliminary",
      "code": {
        "coding": [ {
          "system": "http://loinc.org",
          "code": "6463-4"
        } ],
        "text": "Kweek (isolaten, ABgram...)"
      },
      "subject": {
        "reference": "Patient/405636"
      },
      "effectiveDateTime": "2022-02-26T10:41:00+01:00",
      "issued": "2022-02-26T11:04:42.000+01:00",
      "specimen": {
        "reference": "Specimen/220226100201"
      },
      "hasMember": [ {
        "reference": "Observation/f957d01b-3d55-4fef-a5ec-dcaa19ef8069"
      }, {
        "reference": "Observation/d1ceb80d-e585-448e-ad67-db5fb487c9cc"
      } ]
    }
  }, {
    "fullUrl": "Observation/389060301",
    "resource": {
      "resourceType": "Observation",
      "id": "389060301",
      "meta": {
        "versionId": "1",
        "profile": [ "https://www.ehealth.fgov.be/standards/fhir/lab/StructureDefinition/be-observation-laboratory" ]
      },
      "text": {
        "status": "empty",
        "div": "<div xmlns=\"http://www.w3.org/1999/xhtml\">empty</div>"
      },
      "basedOn": [ {
        "reference": "ServiceRequest/275722285"
      } ],
      "status": "final",
      "code": {
        "coding": [ {
          "system": "https://www.uzgent.be",
          "code": "MCOMMENT"
        } ],
        "text": "Commentaar"
      },
      "subject": {
        "reference": "Patient/405636"
      },
      "issued": "2022-02-26T11:04:42.000+01:00",
      "valueString": "Algemene commentaar",
      "specimen": {
        "reference": "Specimen/220226100201"
      }
    }
  }, {
    "fullUrl": "Specimen/220226100201",
    "resource": {
      "resourceType": "Specimen",
      "id": "220226100201",
      "meta": {
        "versionId": "1",
        "profile": [ "https://www.ehealth.fgov.be/standards/fhir/lab/StructureDefinition/be-specimen-laboratory" ]
      },
      "text": {
        "status": "empty",
        "div": "<div xmlns=\"http://www.w3.org/1999/xhtml\">empty</div>"
      },
      "identifier": [ {
        "system": "https://www.uzgent.be",
        "value": "220226100201"
      } ],
      "status": "available",
      "type": {
        "coding": [ {
          "system": "https://www.uzgent.be",
          "code": "M_UR",
          "display": "M Urine"
        } ]
      },
      "subject": {
        "reference": "Patient/405636"
      },
      "receivedTime": "2022-02-26T10:47:35+01:00",
      "request": [ {
        "reference": "ServiceRequest/275722285"
      } ],
      "collection": {
        "collectedDateTime": "2022-02-26T10:41:00+01:00"
      }
    }
  } ]
}