{
  "resourceType": "Bundle",
  "identifier": {
    "system": "https://www.ehealth.fgov.be/hl7/bundle",
    "value": "2750beb9-148d-45e8-ad23-f95e574391ab"
  },
  "type": "document",
  "timestamp": "2022-04-12T10:34:05.690+02:00",
  "entry": [ {
    "fullUrl": "Composition/35318270",
    "resource": {
      "resourceType": "Composition",
      "id": "35318270",
      "meta": {
        "profile": [ "https://www.ehealth.fgov.be/standards/fhir/lab/StructureDefinition/be-laboratory-report-composition" ]
      },
      "text": {
        "status": "empty",
        "div": "<div xmlns=\"http://www.w3.org/1999/xhtml\">empty</div>"
      },
      "identifier": {
        "system": "https://www.ehealth.fgov.be/lab-report/diagnostic-report-id",
        "value": "2750beb9-148d-45e8-ad23-f95e574391ab"
      },
      "status": "final",
      "type": {
        "coding": [ {
          "system": "http://loinc.org",
          "code": "11502-2",
          "display": "Laboratory report"
        } ]
      },
      "subject": {
        "reference": "Patient/1252172"
      },
      "date": "2022-04-12T10:34:05+02:00",
      "author": [ {
        "reference": "Organization/4335"
      } ],
      "title": "Laboratory Report",
      "section": [ {
        "entry": [ {
          "reference": "DiagnosticReport/35318270"
        } ]
      } ]
    }
  }, {
    "fullUrl": "DiagnosticReport/35318270",
    "resource": {
      "resourceType": "DiagnosticReport",
      "id": "35318270",
      "meta": {
        "versionId": "10",
        "profile": [ "https://www.ehealth.fgov.be/standards/fhir/lab/StructureDefinition/be-laboratory-report" ]
      },
      "text": {
        "status": "empty",
        "div": "<div xmlns=\"http://www.w3.org/1999/xhtml\">empty</div>"
      },
      "identifier": [ {
        "system": "https://www.ehealth.fgov.be/lab-report/diagnostic-report-id",
        "value": "2750beb9-148d-45e8-ad23-f95e574391ab"
      } ],
      "basedOn": [ {
        "reference": "ServiceRequest/211126-3044"
      } ],
      "status": "final",
      "category": [ {
        "coding": [ {
          "system": "http://terminology.hl7.org/CodeSystem/v2-0074",
          "code": "LAB",
          "display": "Laboratory"
        } ]
      } ],
      "code": {
        "coding": [ {
          "system": "http://loinc.org",
          "code": "11502-2"
        } ],
        "text": "Labo rapport"
      },
      "subject": {
        "reference": "Patient/1252172"
      },
      "effectiveDateTime": "2022-04-12T10:34:05+02:00",
      "issued": "2022-03-11T16:07:44.000+01:00",
      "performer": [ {
        "reference": "Organization/4335"
      } ],
      "specimen": [ {
        "reference": "Specimen/211126304401"
      } ],
      "result": [ {
        "reference": "Observation/bdfb92cd-7dda-4010-b389-6b2c068609c8"
      } ]
    }
  }, {
    "fullUrl": "Patient/1252172",
    "resource": {
      "resourceType": "Patient",
      "id": "1252172",
      "meta": {
        "versionId": "1",
        "profile": [ "https://www.ehealth.fgov.be/standards/fhir/core/StructureDefinition/be-patient" ]
      },
      "text": {
        "status": "empty",
        "div": "<div xmlns=\"http://www.w3.org/1999/xhtml\">empty</div>"
      },
      "identifier": [ {
        "use": "official",
        "system": "https://www.ehealth.fgov.be/standards/fhir/core/NamingSystem/ssin",
        "value": "01482105560"
      }, {
        "system": "https://www.uzgent.be",
        "value": "120406 045A84"
      }, {
        "system": "http://mips.be/UZGent",
        "value": "20120406XDTX09"
      } ],
      "name": [ {
        "family": "Xdtestcozohub",
        "given": [ "Xdtest" ]
      } ],
      "telecom": [ {
        "system": "phone",
        "value": "-"
      } ],
      "gender": "male",
      "birthDate": "2012-04-06",
      "address": [ {
        "line": [ "C. Heymanslaan 10" ],
        "city": "GENT",
        "postalCode": "9000",
        "country": "B"
      } ]
    }
  }, {
    "fullUrl": "ServiceRequest/211126-3044",
    "resource": {
      "resourceType": "ServiceRequest",
      "id": "211126-3044",
      "text": {
        "status": "empty",
        "div": "<div xmlns=\"http://www.w3.org/1999/xhtml\">empty</div>"
      },
      "identifier": [ {
        "system": "https://www.uzgent.be",
        "value": "211126-3044"
      }, {
        "value": "000028208822"
      } ],
      "status": "completed",
      "intent": "order",
      "priority": "routine",
      "subject": {
        "reference": "Patient/1252172"
      },
      "authoredOn": "2021-11-26T12:19:00+01:00",
      "requester": {
        "reference": "Practitioner/3018623"
      }
    }
  }, {
    "fullUrl": "Practitioner/3018623",
    "resource": {
      "resourceType": "Practitioner",
      "id": "3018623",
      "meta": {
        "versionId": "1",
        "profile": [ "https://www.ehealth.fgov.be/standards/fhir/core/StructureDefinition/be-practitioner" ]
      },
      "text": {
        "status": "empty",
        "div": "<div xmlns=\"http://www.w3.org/1999/xhtml\">empty</div>"
      },
      "name": [ {
        "family": "Moors",
        "given": [ "Ine" ],
        "prefix": [ "Dr." ]
      } ],
      "telecom": [ {
        "system": "email",
        "value": "ine.moors@ugent.be"
      } ],
      "address": [ {
        "line": [ "Poli Hematologie" ],
        "city": "GENT",
        "postalCode": "9000",
        "country": "B"
      } ],
      "gender": "unknown"
    }
  }, {
    "fullUrl": "Organization/4335",
    "resource": {
      "resourceType": "Organization",
      "id": "4335",
      "text": {
        "status": "empty",
        "div": "<div xmlns=\"http://www.w3.org/1999/xhtml\">empty</div>"
      },
      "name": "Lab UZGent",
      "telecom": [ {
        "system": "phone",
        "value": "09/2406310"
      }, {
        "system": "fax",
        "value": "092404985"
      } ],
      "address": [ {
        "line": [ "C. Heymanslaan 10" ],
        "city": "GENT",
        "postalCode": "9000",
        "country": "B"
      } ]
    }
  }, {
    "fullUrl": "Observation/bdfb92cd-7dda-4010-b389-6b2c068609c8",
    "resource": {
      "resourceType": "Observation",
      "id": "bdfb92cd-7dda-4010-b389-6b2c068609c8",
      "meta": {
        "versionId": "1",
        "profile": [ "https://www.ehealth.fgov.be/standards/fhir/lab/StructureDefinition/be-observation-laboratory" ]
      },
      "text": {
        "status": "empty",
        "div": "<div xmlns=\"http://www.w3.org/1999/xhtml\">empty</div>"
      },
      "status": "unknown",
      "code": {
        "text": "Microbiologie:  peri-anaal defect, ondermijn, zwarte kleur                                                                                 Gekend voor :"
      },
      "subject": {
        "reference": "Patient/1252172"
      },
      "hasMember": [ {
        "reference": "Observation/388289510"
      }, {
        "reference": "Observation/388529871"
      }, {
        "reference": "Observation/f6c761e9-3439-4466-938f-592d5866518a"
      }, {
        "reference": "Observation/388529593"
      }, {
        "reference": "Observation/388289513"
      }, {
        "reference": "Observation/388289514"
      } ]
    }
  }, {
    "fullUrl": "ServiceRequest/274786725",
    "resource": {
      "resourceType": "ServiceRequest",
      "id": "274786725",
      "text": {
        "status": "empty",
        "div": "<div xmlns=\"http://www.w3.org/1999/xhtml\">empty</div>"
      },
      "identifier": [ {
        "system": "https://www.uzgent.be",
        "value": "274786725"
      } ],
      "status": "completed",
      "intent": "order",
      "priority": "routine",
      "subject": {
        "reference": "Patient/1252172"
      }
    }
  }, {
    "fullUrl": "ServiceRequest/274786723",
    "resource": {
      "resourceType": "ServiceRequest",
      "id": "274786723",
      "text": {
        "status": "empty",
        "div": "<div xmlns=\"http://www.w3.org/1999/xhtml\">empty</div>"
      },
      "identifier": [ {
        "system": "https://www.uzgent.be",
        "value": "274786723"
      } ],
      "status": "completed",
      "intent": "order",
      "priority": "routine",
      "subject": {
        "reference": "Patient/1252172"
      }
    }
  }, {
    "fullUrl": "ServiceRequest/275079885",
    "resource": {
      "resourceType": "ServiceRequest",
      "id": "275079885",
      "text": {
        "status": "empty",
        "div": "<div xmlns=\"http://www.w3.org/1999/xhtml\">empty</div>"
      },
      "identifier": [ {
        "system": "https://www.uzgent.be",
        "value": "275079885"
      } ],
      "status": "completed",
      "intent": "order",
      "priority": "routine",
      "subject": {
        "reference": "Patient/1252172"
      }
    }
  }, {
    "fullUrl": "ServiceRequest/274786729",
    "resource": {
      "resourceType": "ServiceRequest",
      "id": "274786729",
      "text": {
        "status": "empty",
        "div": "<div xmlns=\"http://www.w3.org/1999/xhtml\">empty</div>"
      },
      "identifier": [ {
        "system": "https://www.uzgent.be",
        "value": "274786729"
      } ],
      "status": "completed",
      "intent": "order",
      "priority": "routine",
      "subject": {
        "reference": "Patient/1252172"
      }
    }
  }, {
    "fullUrl": "ServiceRequest/274786731",
    "resource": {
      "resourceType": "ServiceRequest",
      "id": "274786731",
      "text": {
        "status": "empty",
        "div": "<div xmlns=\"http://www.w3.org/1999/xhtml\">empty</div>"
      },
      "identifier": [ {
        "system": "https://www.uzgent.be",
        "value": "274786731"
      } ],
      "status": "completed",
      "intent": "order",
      "priority": "routine",
      "subject": {
        "reference": "Patient/1252172"
      }
    }
  }, {
    "fullUrl": "Observation/388289510",
    "resource": {
      "resourceType": "Observation",
      "id": "388289510",
      "meta": {
        "versionId": "1",
        "profile": [ "https://www.ehealth.fgov.be/standards/fhir/lab/StructureDefinition/be-observation-laboratory" ]
      },
      "text": {
        "status": "empty",
        "div": "<div xmlns=\"http://www.w3.org/1999/xhtml\">empty</div>"
      },
      "basedOn": [ {
        "reference": "ServiceRequest/274786725"
      } ],
      "status": "final",
      "code": {
        "coding": [ {
          "system": "http://loinc.org",
          "code": "77202-0"
        } ],
        "text": "Staal Specificatie"
      },
      "subject": {
        "reference": "Patient/1252172"
      },
      "issued": "2021-11-26T12:20:12.000+01:00",
      "valueString": "peri-anaal defect, ondermijn, zwarte kleur"
    }
  }, {
    "fullUrl": "Observation/388529871",
    "resource": {
      "resourceType": "Observation",
      "id": "388529871",
      "meta": {
        "versionId": "1",
        "profile": [ "https://www.ehealth.fgov.be/standards/fhir/lab/StructureDefinition/be-observation-laboratory" ]
      },
      "text": {
        "status": "empty",
        "div": "<div xmlns=\"http://www.w3.org/1999/xhtml\">empty</div>"
      },
      "basedOn": [ {
        "reference": "ServiceRequest/274786723"
      } ],
      "status": "final",
      "code": {
        "coding": [ {
          "system": "https://www.uzgent.be",
          "code": "GRAM"
        } ],
        "text": "Gramkleuring"
      },
      "subject": {
        "reference": "Patient/1252172"
      },
      "issued": "2021-11-29T09:29:06.000+01:00",
      "valueString": "WBC +- meerdere soorten bacteriën +++",
      "specimen": {
        "reference": "Specimen/211126304401"
      }
    }
  }, {
    "fullUrl": "Observation/4b33a42f-400b-4bd6-9f22-c52fa0d58b19",
    "resource": {
      "resourceType": "Observation",
      "id": "4b33a42f-400b-4bd6-9f22-c52fa0d58b19",
      "meta": {
        "versionId": "1",
        "profile": [ "https://www.ehealth.fgov.be/standards/fhir/lab/StructureDefinition/be-observation-laboratory" ]
      },
      "text": {
        "status": "empty",
        "div": "<div xmlns=\"http://www.w3.org/1999/xhtml\">empty</div>"
      },
      "status": "final",
      "code": {
        "coding": [ {
          "system": "http://loinc.org",
          "code": "18861-5"
        } ],
        "text": "Amoxicilline (RIS)"
      },
      "subject": {
        "reference": "Patient/1252172"
      },
      "issued": "2021-11-29T07:55:41.000+01:00",
      "valueCodeableConcept": {
        "coding": [ {
          "system": "http://terminology.hl7.org/CodeSystem/v3-ObservationInterpretation",
          "code": "R"
        } ]
      }
    }
  }, {
    "fullUrl": "Observation/46422eed-4b76-41f5-bde8-23d99cc04511",
    "resource": {
      "resourceType": "Observation",
      "id": "46422eed-4b76-41f5-bde8-23d99cc04511",
      "meta": {
        "versionId": "1",
        "profile": [ "https://www.ehealth.fgov.be/standards/fhir/lab/StructureDefinition/be-observation-laboratory" ]
      },
      "text": {
        "status": "empty",
        "div": "<div xmlns=\"http://www.w3.org/1999/xhtml\">empty</div>"
      },
      "status": "final",
      "code": {
        "coding": [ {
          "system": "https://www.uzgent.be",
          "code": "VAN"
        } ],
        "text": "Vancomycine (RIS)"
      },
      "subject": {
        "reference": "Patient/1252172"
      },
      "issued": "2021-11-29T07:55:41.000+01:00",
      "valueCodeableConcept": {
        "coding": [ {
          "system": "http://terminology.hl7.org/CodeSystem/v3-ObservationInterpretation",
          "code": "S"
        } ]
      }
    }
  }, {
    "fullUrl": "Observation/851d9721-0b1a-4999-b60b-ce9226837aa1",
    "resource": {
      "resourceType": "Observation",
      "id": "851d9721-0b1a-4999-b60b-ce9226837aa1",
      "meta": {
        "versionId": "1",
        "profile": [ "https://www.ehealth.fgov.be/standards/fhir/lab/StructureDefinition/be-observation-laboratory" ]
      },
      "text": {
        "status": "empty",
        "div": "<div xmlns=\"http://www.w3.org/1999/xhtml\">empty</div>"
      },
      "status": "final",
      "code": {
        "coding": [ {
          "system": "https://www.uzgent.be",
          "code": "OFL"
        } ],
        "text": "Ofloxacine/levofloxacine (RIS)"
      },
      "subject": {
        "reference": "Patient/1252172"
      },
      "issued": "2021-11-29T07:55:41.000+01:00",
      "valueCodeableConcept": {
        "coding": [ {
          "system": "http://terminology.hl7.org/CodeSystem/v3-ObservationInterpretation",
          "code": "R"
        } ]
      }
    }
  }, {
    "fullUrl": "Observation/fd3ddac5-4cfd-473a-90a8-1ef7d7a1094b",
    "resource": {
      "resourceType": "Observation",
      "id": "fd3ddac5-4cfd-473a-90a8-1ef7d7a1094b",
      "meta": {
        "versionId": "1",
        "profile": [ "https://www.ehealth.fgov.be/standards/fhir/lab/StructureDefinition/be-observation-laboratory" ]
      },
      "text": {
        "status": "empty",
        "div": "<div xmlns=\"http://www.w3.org/1999/xhtml\">empty</div>"
      },
      "status": "final",
      "code": {
        "coding": [ {
          "system": "https://www.uzgent.be",
          "code": "CEFD",
          "display": "Cefalosporines"
        } ]
      },
      "subject": {
        "reference": "Patient/1252172"
      },
      "issued": "2021-11-29T07:55:41.000+01:00",
      "valueCodeableConcept": {
        "coding": [ {
          "system": "http://terminology.hl7.org/CodeSystem/v3-ObservationInterpretation",
          "code": "R"
        } ]
      },
      "note": [ {
        "text": "Intrinsieke resistentie"
      } ]
    }
  }, {
    "fullUrl": "Observation/211126304401-01",
    "resource": {
      "resourceType": "Observation",
      "id": "211126304401-01",
      "meta": {
        "versionId": "1",
        "profile": [ "https://www.ehealth.fgov.be/standards/fhir/lab/StructureDefinition/be-observation-laboratory" ]
      },
      "text": {
        "status": "empty",
        "div": "<div xmlns=\"http://www.w3.org/1999/xhtml\">empty</div>"
      },
      "basedOn": [ {
        "reference": "ServiceRequest/274786723"
      } ],
      "status": "final",
      "code": {
        "coding": [ {
          "system": "http://snomed.info/sct",
          "code": "90272000"
        } ],
        "text": "Enterococcus faecium"
      },
      "subject": {
        "reference": "Patient/1252172"
      },
      "effectiveDateTime": "2021-11-26T15:36:00+01:00",
      "issued": "2021-11-27T11:13:46.000+01:00",
      "valueString": "+++",
      "specimen": {
        "reference": "Specimen/211126304401"
      },
      "hasMember": [ {
        "reference": "Observation/4b33a42f-400b-4bd6-9f22-c52fa0d58b19"
      }, {
        "reference": "Observation/46422eed-4b76-41f5-bde8-23d99cc04511"
      }, {
        "reference": "Observation/851d9721-0b1a-4999-b60b-ce9226837aa1"
      }, {
        "reference": "Observation/fd3ddac5-4cfd-473a-90a8-1ef7d7a1094b"
      } ]
    }
  }, {
    "fullUrl": "Observation/211126304401-02",
    "resource": {
      "resourceType": "Observation",
      "id": "211126304401-02",
      "meta": {
        "versionId": "1",
        "profile": [ "https://www.ehealth.fgov.be/standards/fhir/lab/StructureDefinition/be-observation-laboratory" ]
      },
      "text": {
        "status": "empty",
        "div": "<div xmlns=\"http://www.w3.org/1999/xhtml\">empty</div>"
      },
      "basedOn": [ {
        "reference": "ServiceRequest/274786723"
      } ],
      "status": "final",
      "code": {
        "coding": [ {
          "system": "http://snomed.info/sct",
          "code": "444877006"
        } ],
        "text": "Nakaseomyces glabrataa (vroeger Candida glabrata)"
      },
      "subject": {
        "reference": "Patient/1252172"
      },
      "effectiveDateTime": "2021-11-26T15:36:00+01:00",
      "issued": "2021-11-27T11:39:48.000+01:00",
      "valueString": "+",
      "specimen": {
        "reference": "Specimen/211126304401"
      }
    }
  }, {
    "fullUrl": "Observation/211126304401-03",
    "resource": {
      "resourceType": "Observation",
      "id": "211126304401-03",
      "meta": {
        "versionId": "1",
        "profile": [ "https://www.ehealth.fgov.be/standards/fhir/lab/StructureDefinition/be-observation-laboratory" ]
      },
      "text": {
        "status": "empty",
        "div": "<div xmlns=\"http://www.w3.org/1999/xhtml\">empty</div>"
      },
      "basedOn": [ {
        "reference": "ServiceRequest/274786723"
      } ],
      "status": "final",
      "code": {
        "coding": [ {
          "system": "http://snomed.info/sct",
          "code": "19415008"
        } ],
        "text": "Clostridium innocuum"
      },
      "subject": {
        "reference": "Patient/1252172"
      },
      "effectiveDateTime": "2021-11-26T15:36:00+01:00",
      "issued": "2021-12-01T12:32:10.000+01:00",
      "valueString": "++",
      "specimen": {
        "reference": "Specimen/211126304401"
      }
    }
  }, {
    "fullUrl": "Observation/2eecbc03-71ff-443f-97a6-de873058c204",
    "resource": {
      "resourceType": "Observation",
      "id": "2eecbc03-71ff-443f-97a6-de873058c204",
      "meta": {
        "versionId": "1",
        "profile": [ "https://www.ehealth.fgov.be/standards/fhir/lab/StructureDefinition/be-observation-laboratory" ]
      },
      "text": {
        "status": "empty",
        "div": "<div xmlns=\"http://www.w3.org/1999/xhtml\">empty</div>"
      },
      "status": "final",
      "code": {
        "coding": [ {
          "system": "https://www.uzgent.be",
          "code": "MER"
        } ],
        "text": "Meropenem (RIS)"
      },
      "subject": {
        "reference": "Patient/1252172"
      },
      "issued": "2021-12-01T13:30:59.000+01:00",
      "valueCodeableConcept": {
        "coding": [ {
          "system": "http://terminology.hl7.org/CodeSystem/v3-ObservationInterpretation",
          "code": "S"
        } ]
      }
    }
  }, {
    "fullUrl": "Observation/211126304401-04",
    "resource": {
      "resourceType": "Observation",
      "id": "211126304401-04",
      "meta": {
        "versionId": "1",
        "profile": [ "https://www.ehealth.fgov.be/standards/fhir/lab/StructureDefinition/be-observation-laboratory" ]
      },
      "text": {
        "status": "empty",
        "div": "<div xmlns=\"http://www.w3.org/1999/xhtml\">empty</div>"
      },
      "basedOn": [ {
        "reference": "ServiceRequest/274786723"
      } ],
      "status": "final",
      "code": {
        "coding": [ {
          "system": "http://snomed.info/sct",
          "code": "55247009"
        } ],
        "text": "Bacteroides fragilis"
      },
      "subject": {
        "reference": "Patient/1252172"
      },
      "effectiveDateTime": "2021-11-26T15:36:00+01:00",
      "issued": "2021-12-01T12:32:10.000+01:00",
      "valueString": "++",
      "specimen": {
        "reference": "Specimen/211126304401"
      },
      "hasMember": [ {
        "reference": "Observation/2eecbc03-71ff-443f-97a6-de873058c204"
      } ]
    }
  }, {
    "fullUrl": "Observation/211126304401-05",
    "resource": {
      "resourceType": "Observation",
      "id": "211126304401-05",
      "meta": {
        "versionId": "1",
        "profile": [ "https://www.ehealth.fgov.be/standards/fhir/lab/StructureDefinition/be-observation-laboratory" ]
      },
      "text": {
        "status": "empty",
        "div": "<div xmlns=\"http://www.w3.org/1999/xhtml\">empty</div>"
      },
      "basedOn": [ {
        "reference": "ServiceRequest/274786723"
      } ],
      "status": "final",
      "code": {
        "coding": [ {
          "system": "https://www.uzgent.be",
          "code": "BACTTH"
        } ],
        "text": "Bacteroides thetaiotaomicron"
      },
      "subject": {
        "reference": "Patient/1252172"
      },
      "effectiveDateTime": "2021-11-26T15:36:00+01:00",
      "issued": "2021-12-01T12:32:11.000+01:00",
      "valueString": "++",
      "specimen": {
        "reference": "Specimen/211126304401"
      }
    }
  }, {
    "fullUrl": "Observation/211126304401-06",
    "resource": {
      "resourceType": "Observation",
      "id": "211126304401-06",
      "meta": {
        "versionId": "1",
        "profile": [ "https://www.ehealth.fgov.be/standards/fhir/lab/StructureDefinition/be-observation-laboratory" ]
      },
      "text": {
        "status": "empty",
        "div": "<div xmlns=\"http://www.w3.org/1999/xhtml\">empty</div>"
      },
      "basedOn": [ {
        "reference": "ServiceRequest/274786723"
      } ],
      "status": "final",
      "code": {
        "coding": [ {
          "system": "http://snomed.info/sct",
          "code": "264395009"
        } ],
        "text": "KIEM"
      },
      "subject": {
        "reference": "Patient/1252172"
      },
      "effectiveDateTime": "2021-11-26T15:36:00+01:00",
      "issued": "2021-12-01T11:33:01.000+01:00",
      "valueString": "++",
      "note": [ {
        "text": "Parabacteroides distasonis"
      } ],
      "specimen": {
        "reference": "Specimen/211126304401"
      }
    }
  }, {
    "fullUrl": "Observation/7f30b2d8-0b17-4d78-beab-40edcff4f094",
    "resource": {
      "resourceType": "Observation",
      "id": "7f30b2d8-0b17-4d78-beab-40edcff4f094",
      "meta": {
        "versionId": "1",
        "profile": [ "https://www.ehealth.fgov.be/standards/fhir/lab/StructureDefinition/be-observation-laboratory" ]
      },
      "text": {
        "status": "empty",
        "div": "<div xmlns=\"http://www.w3.org/1999/xhtml\">empty</div>"
      },
      "basedOn": [ {
        "reference": "ServiceRequest/274786723"
      } ],
      "status": "final",
      "code": {
        "coding": [ {
          "system": "http://loinc.org",
          "code": "6463-4"
        } ],
        "text": "Kweek (isolaten, ABgram...)"
      },
      "subject": {
        "reference": "Patient/1252172"
      },
      "effectiveDateTime": "2021-11-26T15:36:00+01:00",
      "issued": "2021-12-01T13:34:51.000+01:00",
      "specimen": {
        "reference": "Specimen/211126304401"
      },
      "hasMember": [ {
        "reference": "Observation/211126304401-01"
      }, {
        "reference": "Observation/211126304401-02"
      }, {
        "reference": "Observation/211126304401-03"
      }, {
        "reference": "Observation/211126304401-04"
      }, {
        "reference": "Observation/211126304401-05"
      }, {
        "reference": "Observation/211126304401-06"
      } ]
    }
  }, {
    "fullUrl": "Observation/f9733b01-7d3d-4d79-8a53-bb650451ae18",
    "resource": {
      "resourceType": "Observation",
      "id": "f9733b01-7d3d-4d79-8a53-bb650451ae18",
      "meta": {
        "versionId": "1",
        "profile": [ "https://www.ehealth.fgov.be/standards/fhir/lab/StructureDefinition/be-observation-laboratory" ]
      },
      "text": {
        "status": "empty",
        "div": "<div xmlns=\"http://www.w3.org/1999/xhtml\">empty</div>"
      },
      "status": "final",
      "code": {
        "coding": [ {
          "system": "http://loinc.org",
          "code": "18861-5"
        } ],
        "text": "Amoxicilline (RIS)"
      },
      "subject": {
        "reference": "Patient/1252172"
      },
      "issued": "2021-11-29T07:55:41.000+01:00",
      "valueCodeableConcept": {
        "coding": [ {
          "system": "http://terminology.hl7.org/CodeSystem/v3-ObservationInterpretation",
          "code": "R"
        } ]
      }
    }
  }, {
    "fullUrl": "Observation/fbfe11dd-2eb2-4156-911a-93654c14f5fd",
    "resource": {
      "resourceType": "Observation",
      "id": "fbfe11dd-2eb2-4156-911a-93654c14f5fd",
      "meta": {
        "versionId": "1",
        "profile": [ "https://www.ehealth.fgov.be/standards/fhir/lab/StructureDefinition/be-observation-laboratory" ]
      },
      "text": {
        "status": "empty",
        "div": "<div xmlns=\"http://www.w3.org/1999/xhtml\">empty</div>"
      },
      "status": "final",
      "code": {
        "coding": [ {
          "system": "https://www.uzgent.be",
          "code": "VAN"
        } ],
        "text": "Vancomycine (RIS)"
      },
      "subject": {
        "reference": "Patient/1252172"
      },
      "issued": "2021-11-29T07:55:41.000+01:00",
      "valueCodeableConcept": {
        "coding": [ {
          "system": "http://terminology.hl7.org/CodeSystem/v3-ObservationInterpretation",
          "code": "S"
        } ]
      }
    }
  }, {
    "fullUrl": "Observation/fb76cbce-8c03-4489-b66f-c2cdada25587",
    "resource": {
      "resourceType": "Observation",
      "id": "fb76cbce-8c03-4489-b66f-c2cdada25587",
      "meta": {
        "versionId": "1",
        "profile": [ "https://www.ehealth.fgov.be/standards/fhir/lab/StructureDefinition/be-observation-laboratory" ]
      },
      "text": {
        "status": "empty",
        "div": "<div xmlns=\"http://www.w3.org/1999/xhtml\">empty</div>"
      },
      "status": "final",
      "code": {
        "coding": [ {
          "system": "https://www.uzgent.be",
          "code": "OFL"
        } ],
        "text": "Ofloxacine/levofloxacine (RIS)"
      },
      "subject": {
        "reference": "Patient/1252172"
      },
      "issued": "2021-11-29T07:55:41.000+01:00",
      "valueCodeableConcept": {
        "coding": [ {
          "system": "http://terminology.hl7.org/CodeSystem/v3-ObservationInterpretation",
          "code": "R"
        } ]
      }
    }
  }, {
    "fullUrl": "Observation/61085b09-00ab-4cf7-bf69-d9c0d5e089d8",
    "resource": {
      "resourceType": "Observation",
      "id": "61085b09-00ab-4cf7-bf69-d9c0d5e089d8",
      "meta": {
        "versionId": "1",
        "profile": [ "https://www.ehealth.fgov.be/standards/fhir/lab/StructureDefinition/be-observation-laboratory" ]
      },
      "text": {
        "status": "empty",
        "div": "<div xmlns=\"http://www.w3.org/1999/xhtml\">empty</div>"
      },
      "status": "final",
      "code": {
        "coding": [ {
          "system": "https://www.uzgent.be",
          "code": "CEFD",
          "display": "Cefalosporines"
        } ]
      },
      "subject": {
        "reference": "Patient/1252172"
      },
      "issued": "2021-11-29T07:55:41.000+01:00",
      "valueCodeableConcept": {
        "coding": [ {
          "system": "http://terminology.hl7.org/CodeSystem/v3-ObservationInterpretation",
          "code": "R"
        } ]
      },
      "note": [ {
        "text": "Intrinsieke resistentie"
      } ]
    }
  }, {
    "fullUrl": "Observation/4301322e-ee1a-40b2-9666-120ea3a7f40d",
    "resource": {
      "resourceType": "Observation",
      "id": "4301322e-ee1a-40b2-9666-120ea3a7f40d",
      "meta": {
        "versionId": "1",
        "profile": [ "https://www.ehealth.fgov.be/standards/fhir/lab/StructureDefinition/be-observation-laboratory" ]
      },
      "text": {
        "status": "empty",
        "div": "<div xmlns=\"http://www.w3.org/1999/xhtml\">empty</div>"
      },
      "status": "final",
      "code": {
        "coding": [ {
          "system": "https://www.uzgent.be",
          "code": "MER"
        } ],
        "text": "Meropenem (RIS)"
      },
      "subject": {
        "reference": "Patient/1252172"
      },
      "issued": "2021-12-01T13:30:59.000+01:00",
      "valueCodeableConcept": {
        "coding": [ {
          "system": "http://terminology.hl7.org/CodeSystem/v3-ObservationInterpretation",
          "code": "S"
        } ]
      }
    }
  }, {
    "fullUrl": "Observation/f6c761e9-3439-4466-938f-592d5866518a",
    "resource": {
      "resourceType": "Observation",
      "id": "f6c761e9-3439-4466-938f-592d5866518a",
      "meta": {
        "versionId": "1",
        "profile": [ "https://www.ehealth.fgov.be/standards/fhir/lab/StructureDefinition/be-observation-laboratory" ]
      },
      "text": {
        "status": "empty",
        "div": "<div xmlns=\"http://www.w3.org/1999/xhtml\">empty</div>"
      },
      "basedOn": [ {
        "reference": "ServiceRequest/274786723"
      } ],
      "status": "final",
      "code": {
        "coding": [ {
          "system": "http://loinc.org",
          "code": "6463-4"
        } ],
        "text": "Kweek (isolaten, ABgram...)"
      },
      "subject": {
        "reference": "Patient/1252172"
      },
      "effectiveDateTime": "2021-11-26T15:36:00+01:00",
      "issued": "2021-12-01T13:34:51.000+01:00",
      "specimen": {
        "reference": "Specimen/211126304401"
      },
      "hasMember": [ {
        "reference": "Observation/211126304401-01"
      }, {
        "reference": "Observation/211126304401-02"
      }, {
        "reference": "Observation/211126304401-03"
      }, {
        "reference": "Observation/211126304401-04"
      }, {
        "reference": "Observation/211126304401-05"
      }, {
        "reference": "Observation/211126304401-06"
      } ]
    }
  }, {
    "fullUrl": "Observation/388529593",
    "resource": {
      "resourceType": "Observation",
      "id": "388529593",
      "meta": {
        "versionId": "1",
        "profile": [ "https://www.ehealth.fgov.be/standards/fhir/lab/StructureDefinition/be-observation-laboratory" ]
      },
      "text": {
        "status": "empty",
        "div": "<div xmlns=\"http://www.w3.org/1999/xhtml\">empty</div>"
      },
      "basedOn": [ {
        "reference": "ServiceRequest/275079885"
      } ],
      "status": "final",
      "code": {
        "coding": [ {
          "system": "http://loinc.org",
          "code": "635-3",
          "display": "Anaerobic culture: microorganisms identified (specimen defined elsewhere in the message)"
        } ]
      },
      "subject": {
        "reference": "Patient/1252172"
      },
      "issued": "2021-12-01T13:33:08.000+01:00",
      "valueString": "Positief",
      "specimen": {
        "reference": "Specimen/211126304401"
      }
    }
  }, {
    "fullUrl": "Observation/388289513",
    "resource": {
      "resourceType": "Observation",
      "id": "388289513",
      "meta": {
        "versionId": "1",
        "profile": [ "https://www.ehealth.fgov.be/standards/fhir/lab/StructureDefinition/be-observation-laboratory" ]
      },
      "text": {
        "status": "empty",
        "div": "<div xmlns=\"http://www.w3.org/1999/xhtml\">empty</div>"
      },
      "basedOn": [ {
        "reference": "ServiceRequest/274786729"
      } ],
      "status": "final",
      "code": {
        "coding": [ {
          "system": "https://www.uzgent.be",
          "code": "MGIST"
        } ],
        "text": "Kweek Gisten"
      },
      "subject": {
        "reference": "Patient/1252172"
      },
      "issued": "2021-11-27T11:44:58.000+01:00",
      "valueString": "+",
      "specimen": {
        "reference": "Specimen/211126304401"
      }
    }
  }, {
    "fullUrl": "Observation/388289514",
    "resource": {
      "resourceType": "Observation",
      "id": "388289514",
      "meta": {
        "versionId": "1",
        "profile": [ "https://www.ehealth.fgov.be/standards/fhir/lab/StructureDefinition/be-observation-laboratory" ]
      },
      "text": {
        "status": "empty",
        "div": "<div xmlns=\"http://www.w3.org/1999/xhtml\">empty</div>"
      },
      "basedOn": [ {
        "reference": "ServiceRequest/274786731"
      } ],
      "status": "final",
      "code": {
        "coding": [ {
          "system": "https://www.uzgent.be",
          "code": "MSCHIM"
        } ],
        "text": "Kweek schimmels"
      },
      "subject": {
        "reference": "Patient/1252172"
      },
      "issued": "2021-12-01T07:47:39.000+01:00",
      "valueString": "Negatief",
      "specimen": {
        "reference": "Specimen/211126304401"
      }
    }
  }, {
    "fullUrl": "Specimen/211126304401",
    "resource": {
      "resourceType": "Specimen",
      "id": "211126304401",
      "meta": {
        "versionId": "1",
        "profile": [ "https://www.ehealth.fgov.be/standards/fhir/lab/StructureDefinition/be-specimen-laboratory" ]
      },
      "text": {
        "status": "empty",
        "div": "<div xmlns=\"http://www.w3.org/1999/xhtml\">empty</div>"
      },
      "identifier": [ {
        "system": "https://www.uzgent.be",
        "value": "211126304401"
      } ],
      "status": "available",
      "type": {
        "coding": [ {
          "system": "https://www.uzgent.be",
          "code": "M_VA",
          "display": "M Varia"
        } ]
      },
      "subject": {
        "reference": "Patient/1252172"
      },
      "receivedTime": "2021-11-26T15:36:18+01:00",
      "request": [ {
        "reference": "ServiceRequest/274786723"
      } ],
      "collection": {
        "collectedDateTime": "2021-11-26T15:36:00+01:00"
      }
    }
  } ]
}