{"resourceType":"Bundle","type":"document","timestamp":"2021-12-20T16:48:25Z","identifier":{"system":"https://www.ehealth.fgov.be/lab-report/bundle-id","value":"81365677998.815333057.2"},"entry":[{
    "fullUrl": "Composition/815333057",
    "resource": {
        "resourceType": "Composition",
        "id": "815333057",
        "meta": {
            "profile": [
                "https://www.ehealth.fgov.be/standards/fhir/lab/StructureDefinition/be-laboratory-report-composition"
            ]
        },
        "text": {
            "status": "generated",
            "div": "<div xmlns=\"http://www.w3.org/1999/xhtml\"><p><b>id: </b>815333057</p><p><b>status: </b>final</p><p><b>type: </b>http://loinc.org 11502-2 Laboratory report</p><p><b>date: </b>2021-12-20T16:48:25+01:00</p><p><b>author: </b>Practitioner/Responsible</p><p><b>title: </b>Laboratory Report</p></div>"
        },
        "identifier": {
            "system": "http://www.macsys.be/hl7/Composition",
            "value": "815333057"
        },
        "status": "final",
        "type": {
            "coding": [
                {
                    "system": "http://loinc.org",
                    "code": "11502-2"
                }
            ],
            "text": "Laboratory report"
        },
        "subject": {
            "reference": "Patient/7164976"
        },
        "date": "2021-12-20T16:48:25+01:00",
        "author": [
            {
                "reference": "Practitioner/Responsible"
            }
        ],
        "title": "Laboratory Report",
        "section": [
            {
                "entry": [
                    {
                        "reference": "DiagnosticReport/815333057"
                    }
                ]
            }
        ]
    }
}
,{
    "fullUrl": "Specimen/002815333057",
    "resource": {
        "resourceType": "Specimen",
        "id": "002815333057",
        "meta": {
            "profile": [
                "https://www.ehealth.fgov.be/standards/fhir/lab/StructureDefinition/be-specimen-laboratory"
            ]
        },
        "text": {
            "status": "generated",
            "div": "<div xmlns=\"http://www.w3.org/1999/xhtml\"><p><b>id: </b>002815333057</p><p><b>status: </b>available</p><p><b>type: </b>http://terminology.hl7.org/CodeSystem/v2-0487 BLDV Blood venous Fluoride na 15 min</p><p><b>receivedTime: </b>2021-12-17T13:25:05+01:00</p><p><b>collector: </b>Practitioner/69</p></div>"
        },
        "identifier": [
            {
                "system": "http://www.macsys.be/hl7/Specimen",
                "value": "002815333057"
            }
        ],
        "status": "available",
        "type": {
            "coding": [
                {
                    "system": "http://terminology.hl7.org/CodeSystem/v2-0487",
                    "code": "BLDV",
                    "display": "Blood venous"
                }
            ],
            "text": "Fluoride na 15 min"
        },
        "subject": {
            "reference": "Patient/7164976"
        },
        "receivedTime": "2021-12-17T13:25:05+01:00",
        "collection": {
            "collectedDateTime": "2021-12-17T00:00:00+01:00",
            "collector": {
                "reference": "Practitioner/69"
            }
        }
    }
}
,{
    "fullUrl": "Specimen/003815333057",
    "resource": {
        "resourceType": "Specimen",
        "id": "003815333057",
        "meta": {
            "profile": [
                "https://www.ehealth.fgov.be/standards/fhir/lab/StructureDefinition/be-specimen-laboratory"
            ]
        },
        "text": {
            "status": "generated",
            "div": "<div xmlns=\"http://www.w3.org/1999/xhtml\"><p><b>id: </b>003815333057</p><p><b>status: </b>available</p><p><b>type: </b>http://terminology.hl7.org/CodeSystem/v2-0487 BLDV Blood venous Fluoride na 30 min</p><p><b>receivedTime: </b>2021-12-17T13:25:05+01:00</p><p><b>collector: </b>Practitioner/69</p></div>"
        },
        "identifier": [
            {
                "system": "http://www.macsys.be/hl7/Specimen",
                "value": "003815333057"
            }
        ],
        "status": "available",
        "type": {
            "coding": [
                {
                    "system": "http://terminology.hl7.org/CodeSystem/v2-0487",
                    "code": "BLDV",
                    "display": "Blood venous"
                }
            ],
            "text": "Fluoride na 30 min"
        },
        "subject": {
            "reference": "Patient/7164976"
        },
        "receivedTime": "2021-12-17T13:25:05+01:00",
        "collection": {
            "collectedDateTime": "2021-12-17T00:00:00+01:00",
            "collector": {
                "reference": "Practitioner/69"
            }
        }
    }
}
,{
    "fullUrl": "Specimen/004815333057",
    "resource": {
        "resourceType": "Specimen",
        "id": "004815333057",
        "meta": {
            "profile": [
                "https://www.ehealth.fgov.be/standards/fhir/lab/StructureDefinition/be-specimen-laboratory"
            ]
        },
        "text": {
            "status": "generated",
            "div": "<div xmlns=\"http://www.w3.org/1999/xhtml\"><p><b>id: </b>004815333057</p><p><b>status: </b>available</p><p><b>type: </b>http://terminology.hl7.org/CodeSystem/v2-0487 BLDV Blood venous Fluoride na 60 min</p><p><b>receivedTime: </b>2021-12-17T13:25:05+01:00</p><p><b>collector: </b>Practitioner/69</p></div>"
        },
        "identifier": [
            {
                "system": "http://www.macsys.be/hl7/Specimen",
                "value": "004815333057"
            }
        ],
        "status": "available",
        "type": {
            "coding": [
                {
                    "system": "http://terminology.hl7.org/CodeSystem/v2-0487",
                    "code": "BLDV",
                    "display": "Blood venous"
                }
            ],
            "text": "Fluoride na 60 min"
        },
        "subject": {
            "reference": "Patient/7164976"
        },
        "receivedTime": "2021-12-17T13:25:05+01:00",
        "collection": {
            "collectedDateTime": "2021-12-17T00:00:00+01:00",
            "collector": {
                "reference": "Practitioner/69"
            }
        }
    }
}
,{
    "fullUrl": "Specimen/006815333057",
    "resource": {
        "resourceType": "Specimen",
        "id": "006815333057",
        "meta": {
            "profile": [
                "https://www.ehealth.fgov.be/standards/fhir/lab/StructureDefinition/be-specimen-laboratory"
            ]
        },
        "text": {
            "status": "generated",
            "div": "<div xmlns=\"http://www.w3.org/1999/xhtml\"><p><b>id: </b>006815333057</p><p><b>status: </b>available</p><p><b>type: </b>http://terminology.hl7.org/CodeSystem/v2-0487 SER Serum Serum na 0 min</p><p><b>receivedTime: </b>2021-12-17T13:25:05+01:00</p><p><b>collector: </b>Practitioner/69</p></div>"
        },
        "identifier": [
            {
                "system": "http://www.macsys.be/hl7/Specimen",
                "value": "006815333057"
            }
        ],
        "status": "available",
        "type": {
            "coding": [
                {
                    "system": "http://terminology.hl7.org/CodeSystem/v2-0487",
                    "code": "SER",
                    "display": "Serum"
                }
            ],
            "text": "Serum na 0 min"
        },
        "subject": {
            "reference": "Patient/7164976"
        },
        "receivedTime": "2021-12-17T13:25:05+01:00",
        "collection": {
            "collectedDateTime": "2021-12-17T00:00:00+01:00",
            "collector": {
                "reference": "Practitioner/69"
            }
        }
    }
}
,{
    "fullUrl": "Specimen/007815333057",
    "resource": {
        "resourceType": "Specimen",
        "id": "007815333057",
        "meta": {
            "profile": [
                "https://www.ehealth.fgov.be/standards/fhir/lab/StructureDefinition/be-specimen-laboratory"
            ]
        },
        "text": {
            "status": "generated",
            "div": "<div xmlns=\"http://www.w3.org/1999/xhtml\"><p><b>id: </b>007815333057</p><p><b>status: </b>available</p><p><b>type: </b>http://terminology.hl7.org/CodeSystem/v2-0487 SER Serum Serum na 15 min</p><p><b>receivedTime: </b>2021-12-17T13:25:05+01:00</p><p><b>collector: </b>Practitioner/69</p></div>"
        },
        "identifier": [
            {
                "system": "http://www.macsys.be/hl7/Specimen",
                "value": "007815333057"
            }
        ],
        "status": "available",
        "type": {
            "coding": [
                {
                    "system": "http://terminology.hl7.org/CodeSystem/v2-0487",
                    "code": "SER",
                    "display": "Serum"
                }
            ],
            "text": "Serum na 15 min"
        },
        "subject": {
            "reference": "Patient/7164976"
        },
        "receivedTime": "2021-12-17T13:25:05+01:00",
        "collection": {
            "collectedDateTime": "2021-12-17T00:00:00+01:00",
            "collector": {
                "reference": "Practitioner/69"
            }
        }
    }
}
,{
    "fullUrl": "Specimen/008815333057",
    "resource": {
        "resourceType": "Specimen",
        "id": "008815333057",
        "meta": {
            "profile": [
                "https://www.ehealth.fgov.be/standards/fhir/lab/StructureDefinition/be-specimen-laboratory"
            ]
        },
        "text": {
            "status": "generated",
            "div": "<div xmlns=\"http://www.w3.org/1999/xhtml\"><p><b>id: </b>008815333057</p><p><b>status: </b>available</p><p><b>type: </b>http://terminology.hl7.org/CodeSystem/v2-0487 SER Serum Serum na 30 min</p><p><b>receivedTime: </b>2021-12-17T13:25:05+01:00</p><p><b>collector: </b>Practitioner/69</p></div>"
        },
        "identifier": [
            {
                "system": "http://www.macsys.be/hl7/Specimen",
                "value": "008815333057"
            }
        ],
        "status": "available",
        "type": {
            "coding": [
                {
                    "system": "http://terminology.hl7.org/CodeSystem/v2-0487",
                    "code": "SER",
                    "display": "Serum"
                }
            ],
            "text": "Serum na 30 min"
        },
        "subject": {
            "reference": "Patient/7164976"
        },
        "receivedTime": "2021-12-17T13:25:05+01:00",
        "collection": {
            "collectedDateTime": "2021-12-17T00:00:00+01:00",
            "collector": {
                "reference": "Practitioner/69"
            }
        }
    }
}
,{
    "fullUrl": "Specimen/009815333057",
    "resource": {
        "resourceType": "Specimen",
        "id": "009815333057",
        "meta": {
            "profile": [
                "https://www.ehealth.fgov.be/standards/fhir/lab/StructureDefinition/be-specimen-laboratory"
            ]
        },
        "text": {
            "status": "generated",
            "div": "<div xmlns=\"http://www.w3.org/1999/xhtml\"><p><b>id: </b>009815333057</p><p><b>status: </b>available</p><p><b>type: </b>http://terminology.hl7.org/CodeSystem/v2-0487 SER Serum Serum na 60 min</p><p><b>receivedTime: </b>2021-12-17T13:25:05+01:00</p><p><b>collector: </b>Practitioner/69</p></div>"
        },
        "identifier": [
            {
                "system": "http://www.macsys.be/hl7/Specimen",
                "value": "009815333057"
            }
        ],
        "status": "available",
        "type": {
            "coding": [
                {
                    "system": "http://terminology.hl7.org/CodeSystem/v2-0487",
                    "code": "SER",
                    "display": "Serum"
                }
            ],
            "text": "Serum na 60 min"
        },
        "subject": {
            "reference": "Patient/7164976"
        },
        "receivedTime": "2021-12-17T13:25:05+01:00",
        "collection": {
            "collectedDateTime": "2021-12-17T00:00:00+01:00",
            "collector": {
                "reference": "Practitioner/69"
            }
        }
    }
}
,{
    "fullUrl": "Specimen/005815333057",
    "resource": {
        "resourceType": "Specimen",
        "id": "005815333057",
        "meta": {
            "profile": [
                "https://www.ehealth.fgov.be/standards/fhir/lab/StructureDefinition/be-specimen-laboratory"
            ]
        },
        "text": {
            "status": "generated",
            "div": "<div xmlns=\"http://www.w3.org/1999/xhtml\"><p><b>id: </b>005815333057</p><p><b>status: </b>available</p><p><b>type: </b>http://terminology.hl7.org/CodeSystem/v2-0487 BLDV Blood venous Fluoride nuchter</p><p><b>receivedTime: </b>2021-12-17T13:25:05+01:00</p><p><b>collector: </b>Practitioner/69</p></div>"
        },
        "identifier": [
            {
                "system": "http://www.macsys.be/hl7/Specimen",
                "value": "005815333057"
            }
        ],
        "status": "available",
        "type": {
            "coding": [
                {
                    "system": "http://terminology.hl7.org/CodeSystem/v2-0487",
                    "code": "BLDV",
                    "display": "Blood venous"
                }
            ],
            "text": "Fluoride nuchter"
        },
        "subject": {
            "reference": "Patient/7164976"
        },
        "receivedTime": "2021-12-17T13:25:05+01:00",
        "collection": {
            "collectedDateTime": "2021-12-17T00:00:00+01:00",
            "collector": {
                "reference": "Practitioner/69"
            }
        }
    }
}
,{
    "fullUrl": "Observation/Observation.1.0.0.0",
    "resource": {
        "resourceType": "Observation",
        "id": "Observation.1.0.0.0",
        "meta": {
            "profile": [
                "https://www.ehealth.fgov.be/standards/fhir/lab/StructureDefinition/be-observation-laboratory"
            ]
        },
        "text": {
            "status": "generated",
            "div": "<div xmlns=\"http://www.w3.org/1999/xhtml\"><p><b>code: </b>KOOLHYDRATENMETABOLISME</p><p><b>subject: </b>Patient/7164976</p><p><b>effective: </b>2021-12-17T00:00:00+01:00</p><p><b>performer: </b>Practitioner/Responsible</p><p><b>member: </b> // Observation/Observation.1.0.0.1 // Observation/Observation.1.1.0.0 // Observation/Observation.1.2.0.0 // </p></div>"
        },
        "status": "final",
        "code": {
            "text": "KOOLHYDRATENMETABOLISME"
        },
        "subject": {
            "reference": "Patient/7164976"
        },
        "effectiveDateTime": "2021-12-17T00:00:00+01:00",
        "performer": [
            {
                "reference": "Practitioner/Responsible"
            }
        ],
        "hasMember": [
            {
                "reference": "Observation/Observation.1.0.0.1"
            },
            {
                "reference": "Observation/Observation.1.1.0.0"
            },
            {
                "reference": "Observation/Observation.1.2.0.0"
            }
        ]
    }
}
,{
    "fullUrl": "Observation/Observation.1.0.0.1",
    "resource": {
        "resourceType": "Observation",
        "id": "Observation.1.0.0.1",
        "meta": {
            "profile": [
                "https://www.ehealth.fgov.be/standards/fhir/lab/StructureDefinition/be-observation-laboratory"
            ]
        },
        "text": {
            "status": "generated",
            "div": "<div xmlns=\"http://www.w3.org/1999/xhtml\"><p><b>code: </b>http://loinc.org 53049-3 Glucose nuchter</p><p><b>subject: </b>Patient/7164976</p><p><b>effective: </b>2021-12-17T00:00:00+01:00</p><p><b>performer: </b>Practitioner/Responsible</p><p><b>result: </b>108 mg/dL</p><p><b>interpretation: </b>H</p><p><b>referenceRange: </b> // Low: 70 mg/dL // High: 99 mg/dL // </p></div>"
        },
        "status": "final",
        "code": {
            "coding": [
                {
                    "system": "http://loinc.org",
                    "code": "53049-3"
                }
            ],
            "text": "Glucose nuchter"
        },
        "subject": {
            "reference": "Patient/7164976"
        },
        "effectiveDateTime": "2021-12-17T00:00:00+01:00",
        "issued": "2021-12-17T13:26:10+01:00",
        "performer": [
            {
                "reference": "Practitioner/Responsible"
            }
        ],
        "valueQuantity": {
            "value": 108,
            "unit": "mg/dL",
            "system": "http://unitsofmeasure.org",
            "code": "mg/dL"
        },
        "interpretation": [
            {
                "coding": [
                    {
                        "system": "http://terminology.hl7.org/CodeSystem/v3-ObservationInterpretation",
                        "code": "H"
                    }
                ]
            }
        ],
        "referenceRange": [
            {
                "low": {
                    "value": 70,
                    "unit": "mg/dL",
                    "system": "http://unitsofmeasure.org",
                    "code": "mg/dL"
                },
                "high": {
                    "value": 99,
                    "unit": "mg/dL",
                    "system": "http://unitsofmeasure.org",
                    "code": "mg/dL"
                }
            }
        ]
    }
}
,{
    "fullUrl": "Observation/Observation.1.1.0.0",
    "resource": {
        "resourceType": "Observation",
        "id": "Observation.1.1.0.0",
        "meta": {
            "profile": [
                "https://www.ehealth.fgov.be/standards/fhir/lab/StructureDefinition/be-observation-laboratory"
            ]
        },
        "text": {
            "status": "generated",
            "div": "<div xmlns=\"http://www.w3.org/1999/xhtml\"><p><b>code: </b>Glucose tolerantie</p><p><b>subject: </b>Patient/7164976</p><p><b>effective: </b>2021-12-17T00:00:00+01:00</p><p><b>performer: </b>Practitioner/Responsible</p><p><b>member: </b> // Observation/Observation.1.1.0.1 // Observation/Observation.1.1.0.2 // Observation/Observation.1.1.0.3 // </p></div>"
        },
        "status": "final",
        "code": {
            "text": "Glucose tolerantie"
        },
        "subject": {
            "reference": "Patient/7164976"
        },
        "effectiveDateTime": "2021-12-17T00:00:00+01:00",
        "performer": [
            {
                "reference": "Practitioner/Responsible"
            }
        ],
        "hasMember": [
            {
                "reference": "Observation/Observation.1.1.0.1"
            },
            {
                "reference": "Observation/Observation.1.1.0.2"
            },
            {
                "reference": "Observation/Observation.1.1.0.3"
            }
        ]
    }
}
,{
    "fullUrl": "Observation/Observation.1.1.0.1",
    "resource": {
        "resourceType": "Observation",
        "id": "Observation.1.1.0.1",
        "meta": {
            "profile": [
                "https://www.ehealth.fgov.be/standards/fhir/lab/StructureDefinition/be-observation-laboratory"
            ]
        },
        "text": {
            "status": "generated",
            "div": "<div xmlns=\"http://www.w3.org/1999/xhtml\"><p><b>code: </b>http://www.macsys.be/hl7/testcode MED12222 15'  na 75g glucose</p><p><b>subject: </b>Patient/7164976</p><p><b>effective: </b>2021-12-17T00:00:00+01:00</p><p><b>performer: </b>Practitioner/Responsible</p><p><b>result: </b>169 mg/dL</p><p><b>specimen: </b>Specimen/003815333057</p><p><b>referenceRange: </b> // High: 199 mg/dL // </p></div>"
        },
        "status": "final",
        "code": {
            "coding": [
                {
                    "system": "http://www.macsys.be/hl7/testcode",
                    "code": "MED12222"
                }
            ],
            "text": "15'  na 75g glucose"
        },
        "subject": {
            "reference": "Patient/7164976"
        },
        "effectiveDateTime": "2021-12-17T00:00:00+01:00",
        "issued": "2021-12-17T13:26:18+01:00",
        "performer": [
            {
                "reference": "Practitioner/Responsible"
            }
        ],
        "valueQuantity": {
            "value": 169,
            "unit": "mg/dL",
            "system": "http://unitsofmeasure.org",
            "code": "mg/dL"
        },
        "specimen": {
            "reference": "Specimen/003815333057"
        },
        "referenceRange": [
            {
                "high": {
                    "value": 199,
                    "unit": "mg/dL",
                    "system": "http://unitsofmeasure.org",
                    "code": "mg/dL"
                }
            }
        ]
    }
}
,{
    "fullUrl": "Observation/Observation.1.1.0.2",
    "resource": {
        "resourceType": "Observation",
        "id": "Observation.1.1.0.2",
        "meta": {
            "profile": [
                "https://www.ehealth.fgov.be/standards/fhir/lab/StructureDefinition/be-observation-laboratory"
            ]
        },
        "text": {
            "status": "generated",
            "div": "<div xmlns=\"http://www.w3.org/1999/xhtml\"><p><b>code: </b>http://loinc.org 1527-1 30'  na 75g glucose</p><p><b>subject: </b>Patient/7164976</p><p><b>effective: </b>2021-12-17T00:00:00+01:00</p><p><b>performer: </b>Practitioner/Responsible</p><p><b>result: </b>199 mg/dL</p><p><b>specimen: </b>Specimen/004815333057</p><p><b>interpretation: </b>H</p><p><b>referenceRange: </b> // Low: 110 mg/dL // High: 170 mg/dL // </p></div>"
        },
        "status": "final",
        "code": {
            "coding": [
                {
                    "system": "http://loinc.org",
                    "code": "1527-1"
                }
            ],
            "text": "30'  na 75g glucose"
        },
        "subject": {
            "reference": "Patient/7164976"
        },
        "effectiveDateTime": "2021-12-17T00:00:00+01:00",
        "issued": "2021-12-17T13:26:23+01:00",
        "performer": [
            {
                "reference": "Practitioner/Responsible"
            }
        ],
        "valueQuantity": {
            "value": 199,
            "unit": "mg/dL",
            "system": "http://unitsofmeasure.org",
            "code": "mg/dL"
        },
        "interpretation": [
            {
                "coding": [
                    {
                        "system": "http://terminology.hl7.org/CodeSystem/v3-ObservationInterpretation",
                        "code": "H"
                    }
                ]
            }
        ],
        "specimen": {
            "reference": "Specimen/004815333057"
        },
        "referenceRange": [
            {
                "low": {
                    "value": 110,
                    "unit": "mg/dL",
                    "system": "http://unitsofmeasure.org",
                    "code": "mg/dL"
                },
                "high": {
                    "value": 170,
                    "unit": "mg/dL",
                    "system": "http://unitsofmeasure.org",
                    "code": "mg/dL"
                }
            }
        ]
    }
}
,{
    "fullUrl": "Observation/Observation.1.1.0.3",
    "resource": {
        "resourceType": "Observation",
        "id": "Observation.1.1.0.3",
        "meta": {
            "profile": [
                "https://www.ehealth.fgov.be/standards/fhir/lab/StructureDefinition/be-observation-laboratory"
            ]
        },
        "text": {
            "status": "generated",
            "div": "<div xmlns=\"http://www.w3.org/1999/xhtml\"><p><b>code: </b>http://loinc.org 1507-3 60'  na 75g glucose</p><p><b>subject: </b>Patient/7164976</p><p><b>effective: </b>2021-12-17T00:00:00+01:00</p><p><b>performer: </b>Practitioner/Responsible</p><p><b>result: </b>253 mg/dL</p><p><b>specimen: </b>Specimen/006815333057</p><p><b>interpretation: </b>HH</p><p><b>referenceRange: </b> // High: 183 mg/dL // </p></div>"
        },
        "status": "final",
        "code": {
            "coding": [
                {
                    "system": "http://loinc.org",
                    "code": "1507-3"
                }
            ],
            "text": "60'  na 75g glucose"
        },
        "subject": {
            "reference": "Patient/7164976"
        },
        "effectiveDateTime": "2021-12-17T00:00:00+01:00",
        "issued": "2021-12-17T13:26:28+01:00",
        "performer": [
            {
                "reference": "Practitioner/Responsible"
            }
        ],
        "valueQuantity": {
            "value": 253,
            "unit": "mg/dL",
            "system": "http://unitsofmeasure.org",
            "code": "mg/dL"
        },
        "interpretation": [
            {
                "coding": [
                    {
                        "system": "http://terminology.hl7.org/CodeSystem/v3-ObservationInterpretation",
                        "code": "HH"
                    }
                ]
            }
        ],
        "specimen": {
            "reference": "Specimen/006815333057"
        },
        "referenceRange": [
            {
                "high": {
                    "value": 183,
                    "unit": "mg/dL",
                    "system": "http://unitsofmeasure.org",
                    "code": "mg/dL"
                }
            }
        ]
    }
}
,{
    "fullUrl": "Observation/Observation.1.2.0.0",
    "resource": {
        "resourceType": "Observation",
        "id": "Observation.1.2.0.0",
        "meta": {
            "profile": [
                "https://www.ehealth.fgov.be/standards/fhir/lab/StructureDefinition/be-observation-laboratory"
            ]
        },
        "text": {
            "status": "generated",
            "div": "<div xmlns=\"http://www.w3.org/1999/xhtml\"><p><b>code: </b>Insuline belasting 75g glucose</p><p><b>subject: </b>Patient/7164976</p><p><b>effective: </b>2021-12-17T00:00:00+01:00</p><p><b>performer: </b>Practitioner/Responsible</p><p><b>member: </b> // Observation/Observation.1.2.0.1 // Observation/Observation.1.2.0.2 // Observation/Observation.1.2.0.3 // Observation/Observation.1.2.0.4 // </p></div>"
        },
        "status": "final",
        "code": {
            "text": "Insuline belasting 75g glucose"
        },
        "subject": {
            "reference": "Patient/7164976"
        },
        "effectiveDateTime": "2021-12-17T00:00:00+01:00",
        "performer": [
            {
                "reference": "Practitioner/Responsible"
            }
        ],
        "hasMember": [
            {
                "reference": "Observation/Observation.1.2.0.1"
            },
            {
                "reference": "Observation/Observation.1.2.0.2"
            },
            {
                "reference": "Observation/Observation.1.2.0.3"
            },
            {
                "reference": "Observation/Observation.1.2.0.4"
            }
        ]
    }
}
,{
    "fullUrl": "Observation/Observation.1.2.0.1",
    "resource": {
        "resourceType": "Observation",
        "id": "Observation.1.2.0.1",
        "meta": {
            "profile": [
                "https://www.ehealth.fgov.be/standards/fhir/lab/StructureDefinition/be-observation-laboratory"
            ]
        },
        "text": {
            "status": "generated",
            "div": "<div xmlns=\"http://www.w3.org/1999/xhtml\"><p><b>code: </b>http://loinc.org 14796-7 Insuline nuchter</p><p><b>subject: </b>Patient/7164976</p><p><b>effective: </b>2021-12-17T00:00:00+01:00</p><p><b>performer: </b>Practitioner/Responsible</p><p><b>result: </b>716,7 pmol/L</p><p><b>specimen: </b>Specimen/007815333057</p><p><b>interpretation: </b>H</p><p><b>referenceRange: </b> // Low: 18,0 pmol/L // High: 173,0 pmol/L // </p></div>"
        },
        "status": "final",
        "code": {
            "coding": [
                {
                    "system": "http://loinc.org",
                    "code": "14796-7"
                }
            ],
            "text": "Insuline nuchter"
        },
        "subject": {
            "reference": "Patient/7164976"
        },
        "effectiveDateTime": "2021-12-17T00:00:00+01:00",
        "issued": "2021-12-17T13:26:46+01:00",
        "performer": [
            {
                "reference": "Practitioner/Responsible"
            }
        ],
        "valueQuantity": {
            "value": 716.7,
            "unit": "pmol/L",
            "system": "http://unitsofmeasure.org",
            "code": "pmol/L"
        },
        "interpretation": [
            {
                "coding": [
                    {
                        "system": "http://terminology.hl7.org/CodeSystem/v3-ObservationInterpretation",
                        "code": "H"
                    }
                ]
            }
        ],
        "specimen": {
            "reference": "Specimen/007815333057"
        },
        "referenceRange": [
            {
                "low": {
                    "value": 18.0,
                    "unit": "pmol/L",
                    "system": "http://unitsofmeasure.org",
                    "code": "pmol/L"
                },
                "high": {
                    "value": 173.0,
                    "unit": "pmol/L",
                    "system": "http://unitsofmeasure.org",
                    "code": "pmol/L"
                }
            }
        ]
    }
}
,{
    "fullUrl": "Observation/Observation.1.2.0.2",
    "resource": {
        "resourceType": "Observation",
        "id": "Observation.1.2.0.2",
        "meta": {
            "profile": [
                "https://www.ehealth.fgov.be/standards/fhir/lab/StructureDefinition/be-observation-laboratory"
            ]
        },
        "text": {
            "status": "generated",
            "div": "<div xmlns=\"http://www.w3.org/1999/xhtml\"><p><b>code: </b>http://www.macsys.be/hl7/testcode MED12272 15'  na 75g glucose</p><p><b>subject: </b>Patient/7164976</p><p><b>effective: </b>2021-12-17T00:00:00+01:00</p><p><b>performer: </b>Practitioner/Responsible</p><p><b>result: </b>1720,3 pmol/L</p><p><b>specimen: </b>Specimen/008815333057</p></div>"
        },
        "status": "final",
        "code": {
            "coding": [
                {
                    "system": "http://www.macsys.be/hl7/testcode",
                    "code": "MED12272"
                }
            ],
            "text": "15'  na 75g glucose"
        },
        "subject": {
            "reference": "Patient/7164976"
        },
        "effectiveDateTime": "2021-12-17T00:00:00+01:00",
        "issued": "2021-12-17T13:26:51+01:00",
        "performer": [
            {
                "reference": "Practitioner/Responsible"
            }
        ],
        "valueQuantity": {
            "value": 1720.3,
            "unit": "pmol/L",
            "system": "http://unitsofmeasure.org",
            "code": "pmol/L"
        },
        "specimen": {
            "reference": "Specimen/008815333057"
        }
    }
}
,{
    "fullUrl": "Observation/Observation.1.2.0.3",
    "resource": {
        "resourceType": "Observation",
        "id": "Observation.1.2.0.3",
        "meta": {
            "profile": [
                "https://www.ehealth.fgov.be/standards/fhir/lab/StructureDefinition/be-observation-laboratory"
            ]
        },
        "text": {
            "status": "generated",
            "div": "<div xmlns=\"http://www.w3.org/1999/xhtml\"><p><b>code: </b>http://www.macsys.be/hl7/testcode MED12273 30'  na 75g glucose</p><p><b>subject: </b>Patient/7164976</p><p><b>effective: </b>2021-12-17T00:00:00+01:00</p><p><b>performer: </b>Practitioner/Responsible</p><p><b>result: </b>2709,2 pmol/L</p><p><b>specimen: </b>Specimen/009815333057</p><p><b>interpretation: </b>H</p><p><b>referenceRange: </b> // Low: 139,0 pmol/L // High: 778,0 pmol/L // </p></div>"
        },
        "status": "final",
        "code": {
            "coding": [
                {
                    "system": "http://www.macsys.be/hl7/testcode",
                    "code": "MED12273"
                }
            ],
            "text": "30'  na 75g glucose"
        },
        "subject": {
            "reference": "Patient/7164976"
        },
        "effectiveDateTime": "2021-12-17T00:00:00+01:00",
        "issued": "2021-12-17T13:26:57+01:00",
        "performer": [
            {
                "reference": "Practitioner/Responsible"
            }
        ],
        "valueQuantity": {
            "value": 2709.2,
            "unit": "pmol/L",
            "system": "http://unitsofmeasure.org",
            "code": "pmol/L"
        },
        "interpretation": [
            {
                "coding": [
                    {
                        "system": "http://terminology.hl7.org/CodeSystem/v3-ObservationInterpretation",
                        "code": "H"
                    }
                ]
            }
        ],
        "specimen": {
            "reference": "Specimen/009815333057"
        },
        "referenceRange": [
            {
                "low": {
                    "value": 139.0,
                    "unit": "pmol/L",
                    "system": "http://unitsofmeasure.org",
                    "code": "pmol/L"
                },
                "high": {
                    "value": 778.0,
                    "unit": "pmol/L",
                    "system": "http://unitsofmeasure.org",
                    "code": "pmol/L"
                }
            }
        ]
    }
}
,{
    "fullUrl": "Observation/Observation.1.2.0.4",
    "resource": {
        "resourceType": "Observation",
        "id": "Observation.1.2.0.4",
        "meta": {
            "profile": [
                "https://www.ehealth.fgov.be/standards/fhir/lab/StructureDefinition/be-observation-laboratory"
            ]
        },
        "text": {
            "status": "generated",
            "div": "<div xmlns=\"http://www.w3.org/1999/xhtml\"><p><b>code: </b>http://loinc.org 72902-0 60'  na 75g glucose</p><p><b>subject: </b>Patient/7164976</p><p><b>effective: </b>2021-12-17T00:00:00+01:00</p><p><b>performer: </b>Practitioner/Responsible</p><p><b>result: </b>5284,5 pmol/L</p><p><b>specimen: </b>Specimen/005815333057</p><p><b>interpretation: </b>H</p><p><b>referenceRange: </b> // Low: 201,0 pmol/L // High: 611,0 pmol/L // </p></div>"
        },
        "status": "final",
        "code": {
            "coding": [
                {
                    "system": "http://loinc.org",
                    "code": "72902-0"
                }
            ],
            "text": "60'  na 75g glucose"
        },
        "subject": {
            "reference": "Patient/7164976"
        },
        "effectiveDateTime": "2021-12-17T00:00:00+01:00",
        "issued": "2021-12-17T13:27:02+01:00",
        "performer": [
            {
                "reference": "Practitioner/Responsible"
            }
        ],
        "valueQuantity": {
            "value": 5284.5,
            "unit": "pmol/L",
            "system": "http://unitsofmeasure.org",
            "code": "pmol/L"
        },
        "interpretation": [
            {
                "coding": [
                    {
                        "system": "http://terminology.hl7.org/CodeSystem/v3-ObservationInterpretation",
                        "code": "H"
                    }
                ]
            }
        ],
        "specimen": {
            "reference": "Specimen/005815333057"
        },
        "referenceRange": [
            {
                "low": {
                    "value": 201.0,
                    "unit": "pmol/L",
                    "system": "http://unitsofmeasure.org",
                    "code": "pmol/L"
                },
                "high": {
                    "value": 611.0,
                    "unit": "pmol/L",
                    "system": "http://unitsofmeasure.org",
                    "code": "pmol/L"
                }
            }
        ]
    }
}
,{
    "fullUrl": "DiagnosticReport/815333057",
    "resource": {
        "resourceType": "DiagnosticReport",
        "id": "815333057",
        "meta": {
            "versionId": "2",
            "profile": [
                "https://www.ehealth.fgov.be/standards/fhir/lab/StructureDefinition/be-laboratory-report"
            ]
        },
        "language": "nl",
        "text": {
            "status": "generated",
            "div": "<div xmlns=\"http://www.w3.org/1999/xhtml\" xml:lang=\"nl\" lang=\"nl\"><p><b>id: </b>815333057</p><p><b>basedOn: </b>ServiceRequest/815333057</p><p><b>status: </b>final</p><p><b>category: </b>http://terminology.hl7.org/CodeSystem/v2-0074 LAB Laboratory</p><p><b>code: </b>http://loinc.org 11502-2 Laboratory report</p><p><b>subject: </b>Patient/7164976</p><p><b>effective: </b>2021-12-17T00:00:00+01:00</p><p><b>issued: </b>2021-12-20T16:48:25+01:00</p><p><b>performer: </b>Organization/81365677998</p><p><b>resultsInterpreter: </b>Practitioner/Responsible</p><p><b>specimen: </b> // Specimen/002815333057 // Specimen/003815333057 // Specimen/004815333057 // Specimen/006815333057 // Specimen/007815333057 // Specimen/008815333057 // Specimen/009815333057 // Specimen/005815333057 // </p><p><b>result: </b> // Observation/Observation.1.0.0.0 // </p></div>"
        },
        "identifier": [
            {
                "system": "https://www.ehealth.fgov.be/lab-report/diagnostic-report-id",
                "value": "81365677998.815333057"
            }
        ],
        "basedOn": [
            {
                "reference": "ServiceRequest/815333057"
            }
        ],
        "status": "final",
        "category": [
            {
                "coding": [
                    {
                        "system": "http://terminology.hl7.org/CodeSystem/v2-0074",
                        "code": "LAB",
                        "display": "Laboratory"
                    }
                ]
            }
        ],
        "code": {
            "coding": [
                {
                    "system": "http://loinc.org",
                    "code": "11502-2",
                    "display": "Laboratory report"
                }
            ]
        },
        "subject": {
            "reference": "Patient/7164976"
        },
        "effectiveDateTime": "2021-12-17T00:00:00+01:00",
        "issued": "2021-12-20T16:48:25+01:00",
        "performer": [
            {
                "reference": "Organization/81365677998"
            }
        ],
        "resultsInterpreter": [
            {
                "reference": "Practitioner/Responsible"
            }
        ],
        "specimen": [
            {
                "reference": "Specimen/002815333057"
            },
            {
                "reference": "Specimen/003815333057"
            },
            {
                "reference": "Specimen/004815333057"
            },
            {
                "reference": "Specimen/006815333057"
            },
            {
                "reference": "Specimen/007815333057"
            },
            {
                "reference": "Specimen/008815333057"
            },
            {
                "reference": "Specimen/009815333057"
            },
            {
                "reference": "Specimen/005815333057"
            }
        ],
        "result": [
            {
                "reference": "Observation/Observation.1.0.0.0"
            }
        ],
        "presentedForm": [
            {
                "contentType": "application/pdf",
                "data": "",
                "title": "PDF protocol"
            }
        ]
    }
}
,{
    "fullUrl": "Organization/81365677998",
    "resource": {
        "resourceType": "Organization",
        "id": "81365677998",
        "meta": {
            "profile": [
                "https://www.ehealth.fgov.be/standards/fhir/core/StructureDefinition/be-organization"
            ]
        },
        "text": {
            "status": "generated",
            "div": "<div xmlns=\"http://www.w3.org/1999/xhtml\"><p><b>identifier: </b>81365677998</p><p><b>name: </b>CENTRUM VOOR MEDISCHE ANALYSE</p><p><b>contact: </b>014/28.50.00</p><p><b>address: </b>Oud-Strijderslaan 199 2200 Herentals BE</p></div>"
        },
        "identifier": [
            {
                "use": "official",
                "type": {
                    "coding": [
                        {
                            "system": "http://terminology.hl7.org/CodeSystem/v2-0203",
                            "code": "MD",
                            "display": "Medical License number"
                        }
                    ]
                },
                "system": "https://www.ehealth.fgov.be/standards/fhir/core/NamingSystem/nihdi",
                "value": "81365677998"
            },
            {
                "use": "official",
                "system": "https://economie.fgov.be/belac",
                "value": "007-MED"
            }
        ],
        "active": true,
        "type": [
            {
                "coding": [
                    {
                        "system": "https://www.ehealth.fgov.be/standards/fhir/core/CodeSystem/cd-hcparty",
                        "code": "orglaboratory"
                    }
                ]
            }
        ],
        "name": "CENTRUM VOOR MEDISCHE ANALYSE",
        "telecom": [
            {
                "system": "phone",
                "value": "014/28.50.00",
                "use": "work"
            },
            {
                "system": "fax",
                "value": "014/22.56.08",
                "use": "work"
            },
            {
                "system": "email",
                "value": "info@cma.be",
                "use": "work"
            },
            {
                "system": "url",
                "value": "http://www.cma.be",
                "use": "work"
            }
        ],
        "address": [
            {
                "use": "work",
                "type": "both",
                "line": [
                    "Oud-Strijderslaan 199"
                ],
                "city": "Herentals",
                "postalCode": "2200",
                "country": "BE"
            }
        ]
    }
}
,{
    "fullUrl": "Practitioner/69",
    "resource": {
        "resourceType": "Practitioner",
        "id": "69",
        "meta": {
            "profile": [
                "https://www.ehealth.fgov.be/standards/fhir/core/StructureDefinition/be-practitioner"
            ]
        },
        "text": {
            "status": "generated",
            "div": "<div xmlns=\"http://www.w3.org/1999/xhtml\"><p><b>identifier: </b>10000007999</p><p><b>name: </b>Cma - Herentals Fhir</p><p><b>contact: </b>info@cma.be</p><p><b>address: </b>Oud-Strijderslaan 199 2200 Herentals BE</p></div>"
        },
        "identifier": [
            {
                "use": "official",
                "system": "https://www.ehealth.fgov.be/standards/fhir/core/NamingSystem/nihdi",
                "value": "10000007999"
            }
        ],
        "name": [
            {
                "use": "official",
                "family": "Cma - Herentals",
                "given": [
                    "Fhir"
                ],
                "prefix": [
                    "Dr."
                ]
            }
        ],
        "telecom": [
            {
                "system": "email",
                "value": "info@cma.be",
                "use": "work"
            },
            {
                "system": "fax",
                "value": "(+32)14/225608",
                "use": "work"
            },
            {
                "system": "phone",
                "value": "(+32)14/285000",
                "use": "work"
            }
        ],
        "address": [
            {
                "use": "work",
                "type": "both",
                "line": [
                    "Oud-Strijderslaan 199"
                ],
                "city": "Herentals",
                "postalCode": "2200",
                "country": "BE"
            }
        ],
        "gender": "unknown"
    }
}
,{
    "fullUrl": "Practitioner/Responsible",
    "resource": {
        "resourceType": "Practitioner",
        "id": "Responsible",
        "meta": {
            "profile": [
                "https://www.ehealth.fgov.be/standards/fhir/core/StructureDefinition/be-practitioner"
            ]
        },
        "text": {
            "status": "generated",
            "div": "<div xmlns=\"http://www.w3.org/1999/xhtml\"><p><b>identifier: </b>68071432800</p><p><b>name: </b>Engelen Frans</p><p><b>contact: </b>014/28.50.00</p><p><b>address: </b>Oud-Strijderslaan 199 2200 Herentals BE</p></div>"
        },
        "identifier": [
            {
                "use": "official",
                "system": "https://www.ehealth.fgov.be/standards/fhir/core/NamingSystem/nihdi",
                "value": "68071432800"
            }
        ],
        "name": [
            {
                "use": "official",
                "family": "Engelen",
                "given": [
                    "Frans"
                ]
            }
        ],
        "telecom": [
            {
                "system": "phone",
                "value": "014/28.50.00",
                "use": "work"
            }
        ],
        "address": [
            {
                "use": "work",
                "type": "both",
                "line": [
                    "Oud-Strijderslaan 199"
                ],
                "city": "Herentals",
                "postalCode": "2200",
                "country": "BE"
            }
        ],
        "gender": "unknown"
    }
}
,{
    "fullUrl": "Patient/7164976",
    "resource": {
        "resourceType": "Patient",
        "id": "7164976",
        "meta": {
            "profile": [
                "https://www.ehealth.fgov.be/standards/fhir/core/StructureDefinition/be-patient"
            ]
        },
        "text": {
            "status": "generated",
            "div": "<div xmlns=\"http://www.w3.org/1999/xhtml\"><p><b>identifier: </b>90010199794</p><p><b>name: </b>Lastname Firstname Male</p><p><b>gender: </b>male</p><p><b>birthDate: </b>1990-01-01</p><p><b>address: </b>Oud-Strijderslaan 199 2200 Herentals BE</p></div>"
        },
        "identifier": [
            {
                "use": "official",
                "system": "https://www.ehealth.fgov.be/standards/fhir/core/NamingSystem/ssin",
                "value": "90010199794"
            }
        ],
        "active": true,
        "name": [
            {
                "use": "official",
                "family": "Lastname",
                "given": [
                    "Firstname Male"
                ]
            }
        ],
        "address": [
            {
                "use": "home",
                "type": "both",
                "line": [
                    "Oud-Strijderslaan 199"
                ],
                "city": "Herentals",
                "postalCode": "2200",
                "country": "BE"
            }
        ],
        "gender": "male",
        "birthDate": "1990-01-01"
    }
}
,{
    "fullUrl": "ServiceRequest/815333057",
    "resource": {
        "resourceType": "ServiceRequest",
        "id": "815333057",
        "text": {
            "status": "generated",
            "div": "<div xmlns=\"http://www.w3.org/1999/xhtml\"><p><b>id: </b>815333057</p><p><b>intent: </b>order</p><p><b>status: </b>completed</p><p><b>category: </b>http://snomed.info/sct 108252007 Laboratory procedure</p><p><b>subject: </b>Patient/7164976</p><p><b>requester: </b>Practitioner/69</p><p><b>authoredOn: </b>2021-12-17T13:25:00+01:00</p></div>"
        },
        "identifier": [
            {
                "system": "http://www.macsys.be/hl7/ServiceRequest",
                "value": "815333057"
            }
        ],
        "status": "completed",
        "intent": "order",
        "category": [
            {
                "coding": [
                    {
                        "system": "http://snomed.info/sct",
                        "code": "108252007",
                        "display": "Laboratory procedure"
                    }
                ]
            }
        ],
        "subject": {
            "reference": "Patient/7164976"
        },
        "priority": "routine",
        "authoredOn": "2021-12-17T13:25:00+01:00",
        "requester": {
            "reference": "Practitioner/69"
        }
    }
}
]}