{
    "resourceType": "Bundle",
    "type": "document",
    "timestamp": "2021-12-21T10:12:23Z",
    "identifier": {
        "system": "https://www.ehealth.fgov.be/lab-report/bundle-id",
        "value": "81365677998.815333051.8"
    }
,             "entry":[{
    "fullUrl": "Composition/815333051",
    "resource": {
        "resourceType": "Composition",
        "id": "815333051",
        "meta": {
            "profile": [
                "https://www.ehealth.fgov.be/standards/fhir/lab/StructureDefinition/be-laboratory-report-composition"
            ]
        },
        "text": {
            "status": "generated",
            "div": "<div xmlns=\"http://www.w3.org/1999/xhtml\"><p><b>id: </b>815333051</p><p><b>status: </b>final</p><p><b>type: </b>http://loinc.org 11502-2 Laboratory report</p><p><b>date: </b>2021-12-21T10:12:23+01:00</p><p><b>author: </b>Practitioner/Responsible</p><p><b>title: </b>Laboratory Report</p></div>"
        },
        "identifier": {
            "system": "http://www.macsys.be/hl7/Composition",
            "value": "815333051"
        },
        "status": "final",
        "type": {
            "coding": [
                {
                    "system": "http://loinc.org",
                    "code": "11502-2"
                }
            ],
            "text": "Laboratory report"
        },
        "subject": {
            "reference": "Patient/7164976"
        },
        "date": "2021-12-21T10:12:23+01:00",
        "author": [
            {
                "reference": "Practitioner/Responsible"
            }
        ],
        "title": "Laboratory Report",
        "section": [
            {
                "entry": [
                    {
                        "reference": "DiagnosticReport/815333051"
                    }
                ]
            }
        ]
    }
}
,{
    "fullUrl": "Specimen/001815333051",
    "resource": {
        "resourceType": "Specimen",
        "id": "001815333051",
        "meta": {
            "profile": [
                "https://www.ehealth.fgov.be/standards/fhir/StructureDefinition/be-specimen-laboratory"
            ]
        },
        "text": {
            "status": "generated",
            "div": "<div xmlns=\"http://www.w3.org/1999/xhtml\"><p><b>id: </b>001815333051</p><p><b>status: </b>available</p><p><b>type: </b>http://terminology.hl7.org/CodeSystem/v2-0487 BLDV Blood venous Fluoride nuchter</p><p><b>receivedTime: </b>2021-12-01T17:00:55+01:00</p><p><b>collector: </b>Practitioner/69</p></div>"
        },
        "identifier": [
            {
                "system": "http://www.macsys.be/hl7/Specimen",
                "value": "001815333051"
            }
        ],
        "status": "available",
        "type": {
            "coding": [
                {
                    "system": "http://terminology.hl7.org/CodeSystem/v2-0487",
                    "code": "BLDV",
                    "display": "Blood venous"
                }
            ],
            "text": "Fluoride nuchter"
        },
        "subject": {
            "reference": "Patient/7164976"
        },
        "receivedTime": "2021-12-01T17:00:55+01:00",
        "collection": {
            "collectedDateTime": "2021-12-01T00:00:00+01:00",
            "collector": {
                "reference": "Practitioner/69"
            }
        }
    }
}
,{
    "fullUrl": "Specimen/002815333051",
    "resource": {
        "resourceType": "Specimen",
        "id": "002815333051",
        "meta": {
            "profile": [
                "https://www.ehealth.fgov.be/standards/fhir/StructureDefinition/be-specimen-laboratory"
            ]
        },
        "text": {
            "status": "generated",
            "div": "<div xmlns=\"http://www.w3.org/1999/xhtml\"><p><b>id: </b>002815333051</p><p><b>status: </b>available</p><p><b>type: </b>http://terminology.hl7.org/CodeSystem/v2-0487 SER Serum Serum ochtend/serum nuchter</p><p><b>receivedTime: </b>2021-12-01T17:00:55+01:00</p><p><b>collector: </b>Practitioner/69</p></div>"
        },
        "identifier": [
            {
                "system": "http://www.macsys.be/hl7/Specimen",
                "value": "002815333051"
            }
        ],
        "status": "available",
        "type": {
            "coding": [
                {
                    "system": "http://terminology.hl7.org/CodeSystem/v2-0487",
                    "code": "SER",
                    "display": "Serum"
                }
            ],
            "text": "Serum ochtend/serum nuchter"
        },
        "subject": {
            "reference": "Patient/7164976"
        },
        "receivedTime": "2021-12-01T17:00:55+01:00",
        "collection": {
            "collectedDateTime": "2021-12-01T00:00:00+01:00",
            "collector": {
                "reference": "Practitioner/69"
            }
        }
    }
}
,{
    "fullUrl": "Specimen/003815333051",
    "resource": {
        "resourceType": "Specimen",
        "id": "003815333051",
        "meta": {
            "profile": [
                "https://www.ehealth.fgov.be/standards/fhir/StructureDefinition/be-specimen-laboratory"
            ]
        },
        "text": {
            "status": "generated",
            "div": "<div xmlns=\"http://www.w3.org/1999/xhtml\"><p><b>id: </b>003815333051</p><p><b>status: </b>available</p><p><b>type: </b>http://terminology.hl7.org/CodeSystem/v2-0487 BLDV Blood venous Lactaatcurve 1</p><p><b>receivedTime: </b>2021-12-01T17:00:55+01:00</p><p><b>collector: </b>Practitioner/69</p></div>"
        },
        "identifier": [
            {
                "system": "http://www.macsys.be/hl7/Specimen",
                "value": "003815333051"
            }
        ],
        "status": "available",
        "type": {
            "coding": [
                {
                    "system": "http://terminology.hl7.org/CodeSystem/v2-0487",
                    "code": "BLDV",
                    "display": "Blood venous"
                }
            ],
            "text": "Lactaatcurve 1"
        },
        "subject": {
            "reference": "Patient/7164976"
        },
        "receivedTime": "2021-12-01T17:00:55+01:00",
        "collection": {
            "collectedDateTime": "2021-12-01T00:00:00+01:00",
            "collector": {
                "reference": "Practitioner/69"
            }
        }
    }
}
,{
    "fullUrl": "Specimen/004815333051",
    "resource": {
        "resourceType": "Specimen",
        "id": "004815333051",
        "meta": {
            "profile": [
                "https://www.ehealth.fgov.be/standards/fhir/StructureDefinition/be-specimen-laboratory"
            ]
        },
        "text": {
            "status": "generated",
            "div": "<div xmlns=\"http://www.w3.org/1999/xhtml\"><p><b>id: </b>004815333051</p><p><b>status: </b>available</p><p><b>type: </b>http://terminology.hl7.org/CodeSystem/v2-0487 BLDV Blood venous Lactaatcurve 2</p><p><b>receivedTime: </b>2021-12-01T17:00:55+01:00</p><p><b>collector: </b>Practitioner/69</p></div>"
        },
        "identifier": [
            {
                "system": "http://www.macsys.be/hl7/Specimen",
                "value": "004815333051"
            }
        ],
        "status": "available",
        "type": {
            "coding": [
                {
                    "system": "http://terminology.hl7.org/CodeSystem/v2-0487",
                    "code": "BLDV",
                    "display": "Blood venous"
                }
            ],
            "text": "Lactaatcurve 2"
        },
        "subject": {
            "reference": "Patient/7164976"
        },
        "receivedTime": "2021-12-01T17:00:55+01:00",
        "collection": {
            "collectedDateTime": "2021-12-01T00:00:00+01:00",
            "collector": {
                "reference": "Practitioner/69"
            }
        }
    }
}
,{
    "fullUrl": "Specimen/005815333051",
    "resource": {
        "resourceType": "Specimen",
        "id": "005815333051",
        "meta": {
            "profile": [
                "https://www.ehealth.fgov.be/standards/fhir/StructureDefinition/be-specimen-laboratory"
            ]
        },
        "text": {
            "status": "generated",
            "div": "<div xmlns=\"http://www.w3.org/1999/xhtml\"><p><b>id: </b>005815333051</p><p><b>status: </b>available</p><p><b>type: </b>http://terminology.hl7.org/CodeSystem/v2-0487 BLDV Blood venous Lactaatcurve 3</p><p><b>receivedTime: </b>2021-12-01T17:00:55+01:00</p><p><b>collector: </b>Practitioner/69</p></div>"
        },
        "identifier": [
            {
                "system": "http://www.macsys.be/hl7/Specimen",
                "value": "005815333051"
            }
        ],
        "status": "available",
        "type": {
            "coding": [
                {
                    "system": "http://terminology.hl7.org/CodeSystem/v2-0487",
                    "code": "BLDV",
                    "display": "Blood venous"
                }
            ],
            "text": "Lactaatcurve 3"
        },
        "subject": {
            "reference": "Patient/7164976"
        },
        "receivedTime": "2021-12-01T17:00:55+01:00",
        "collection": {
            "collectedDateTime": "2021-12-01T00:00:00+01:00",
            "collector": {
                "reference": "Practitioner/69"
            }
        }
    }
}
,{
    "fullUrl": "Specimen/006815333051",
    "resource": {
        "resourceType": "Specimen",
        "id": "006815333051",
        "meta": {
            "profile": [
                "https://www.ehealth.fgov.be/standards/fhir/StructureDefinition/be-specimen-laboratory"
            ]
        },
        "text": {
            "status": "generated",
            "div": "<div xmlns=\"http://www.w3.org/1999/xhtml\"><p><b>id: </b>006815333051</p><p><b>status: </b>available</p><p><b>type: </b>http://terminology.hl7.org/CodeSystem/v2-0487 BLDV Blood venous Lactaatcurve 4</p><p><b>receivedTime: </b>2021-12-01T17:00:55+01:00</p><p><b>collector: </b>Practitioner/69</p></div>"
        },
        "identifier": [
            {
                "system": "http://www.macsys.be/hl7/Specimen",
                "value": "006815333051"
            }
        ],
        "status": "available",
        "type": {
            "coding": [
                {
                    "system": "http://terminology.hl7.org/CodeSystem/v2-0487",
                    "code": "BLDV",
                    "display": "Blood venous"
                }
            ],
            "text": "Lactaatcurve 4"
        },
        "subject": {
            "reference": "Patient/7164976"
        },
        "receivedTime": "2021-12-01T17:00:55+01:00",
        "collection": {
            "collectedDateTime": "2021-12-01T00:00:00+01:00",
            "collector": {
                "reference": "Practitioner/69"
            }
        }
    }
}
,{
    "fullUrl": "Specimen/007815333051",
    "resource": {
        "resourceType": "Specimen",
        "id": "007815333051",
        "meta": {
            "profile": [
                "https://www.ehealth.fgov.be/standards/fhir/StructureDefinition/be-specimen-laboratory"
            ]
        },
        "text": {
            "status": "generated",
            "div": "<div xmlns=\"http://www.w3.org/1999/xhtml\"><p><b>id: </b>007815333051</p><p><b>status: </b>available</p><p><b>type: </b>http://terminology.hl7.org/CodeSystem/v2-0487 BLDV Blood venous Lactaatcurve 5</p><p><b>receivedTime: </b>2021-12-01T17:00:55+01:00</p><p><b>collector: </b>Practitioner/69</p></div>"
        },
        "identifier": [
            {
                "system": "http://www.macsys.be/hl7/Specimen",
                "value": "007815333051"
            }
        ],
        "status": "available",
        "type": {
            "coding": [
                {
                    "system": "http://terminology.hl7.org/CodeSystem/v2-0487",
                    "code": "BLDV",
                    "display": "Blood venous"
                }
            ],
            "text": "Lactaatcurve 5"
        },
        "subject": {
            "reference": "Patient/7164976"
        },
        "receivedTime": "2021-12-01T17:00:55+01:00",
        "collection": {
            "collectedDateTime": "2021-12-01T00:00:00+01:00",
            "collector": {
                "reference": "Practitioner/69"
            }
        }
    }
}
,{
    "fullUrl": "Specimen/008815333051",
    "resource": {
        "resourceType": "Specimen",
        "id": "008815333051",
        "meta": {
            "profile": [
                "https://www.ehealth.fgov.be/standards/fhir/StructureDefinition/be-specimen-laboratory"
            ]
        },
        "text": {
            "status": "generated",
            "div": "<div xmlns=\"http://www.w3.org/1999/xhtml\"><p><b>id: </b>008815333051</p><p><b>status: </b>available</p><p><b>type: </b>http://terminology.hl7.org/CodeSystem/v2-0487 BLDV Blood venous Lactaatcurve 6</p><p><b>receivedTime: </b>2021-12-01T17:00:55+01:00</p><p><b>collector: </b>Practitioner/69</p></div>"
        },
        "identifier": [
            {
                "system": "http://www.macsys.be/hl7/Specimen",
                "value": "008815333051"
            }
        ],
        "status": "available",
        "type": {
            "coding": [
                {
                    "system": "http://terminology.hl7.org/CodeSystem/v2-0487",
                    "code": "BLDV",
                    "display": "Blood venous"
                }
            ],
            "text": "Lactaatcurve 6"
        },
        "subject": {
            "reference": "Patient/7164976"
        },
        "receivedTime": "2021-12-01T17:00:55+01:00",
        "collection": {
            "collectedDateTime": "2021-12-01T00:00:00+01:00",
            "collector": {
                "reference": "Practitioner/69"
            }
        }
    }
}
,{
    "fullUrl": "Specimen/009815333051",
    "resource": {
        "resourceType": "Specimen",
        "id": "009815333051",
        "meta": {
            "profile": [
                "https://www.ehealth.fgov.be/standards/fhir/StructureDefinition/be-specimen-laboratory"
            ]
        },
        "text": {
            "status": "generated",
            "div": "<div xmlns=\"http://www.w3.org/1999/xhtml\"><p><b>id: </b>009815333051</p><p><b>status: </b>available</p><p><b>type: </b>http://terminology.hl7.org/CodeSystem/v2-0487 BLDV Blood venous Lactaatcurve 7</p><p><b>receivedTime: </b>2021-12-01T17:00:55+01:00</p><p><b>collector: </b>Practitioner/69</p></div>"
        },
        "identifier": [
            {
                "system": "http://www.macsys.be/hl7/Specimen",
                "value": "009815333051"
            }
        ],
        "status": "available",
        "type": {
            "coding": [
                {
                    "system": "http://terminology.hl7.org/CodeSystem/v2-0487",
                    "code": "BLDV",
                    "display": "Blood venous"
                }
            ],
            "text": "Lactaatcurve 7"
        },
        "subject": {
            "reference": "Patient/7164976"
        },
        "receivedTime": "2021-12-01T17:00:55+01:00",
        "collection": {
            "collectedDateTime": "2021-12-01T00:00:00+01:00",
            "collector": {
                "reference": "Practitioner/69"
            }
        }
    }
}
,{
    "fullUrl": "Specimen/010815333051",
    "resource": {
        "resourceType": "Specimen",
        "id": "010815333051",
        "meta": {
            "profile": [
                "https://www.ehealth.fgov.be/standards/fhir/StructureDefinition/be-specimen-laboratory"
            ]
        },
        "text": {
            "status": "generated",
            "div": "<div xmlns=\"http://www.w3.org/1999/xhtml\"><p><b>id: </b>010815333051</p><p><b>status: </b>available</p><p><b>type: </b>http://terminology.hl7.org/CodeSystem/v2-0487 BLDV Blood venous Lactaatcurve 8</p><p><b>receivedTime: </b>2021-12-01T17:00:55+01:00</p><p><b>collector: </b>Practitioner/69</p></div>"
        },
        "identifier": [
            {
                "system": "http://www.macsys.be/hl7/Specimen",
                "value": "010815333051"
            }
        ],
        "status": "available",
        "type": {
            "coding": [
                {
                    "system": "http://terminology.hl7.org/CodeSystem/v2-0487",
                    "code": "BLDV",
                    "display": "Blood venous"
                }
            ],
            "text": "Lactaatcurve 8"
        },
        "subject": {
            "reference": "Patient/7164976"
        },
        "receivedTime": "2021-12-01T17:00:55+01:00",
        "collection": {
            "collectedDateTime": "2021-12-01T00:00:00+01:00",
            "collector": {
                "reference": "Practitioner/69"
            }
        }
    }
}
,{
    "fullUrl": "Specimen/011815333051",
    "resource": {
        "resourceType": "Specimen",
        "id": "011815333051",
        "meta": {
            "profile": [
                "https://www.ehealth.fgov.be/standards/fhir/StructureDefinition/be-specimen-laboratory"
            ]
        },
        "text": {
            "status": "generated",
            "div": "<div xmlns=\"http://www.w3.org/1999/xhtml\"><p><b>id: </b>011815333051</p><p><b>status: </b>available</p><p><b>type: </b>http://terminology.hl7.org/CodeSystem/v2-0487 SER Serum Serum prolactine</p><p><b>receivedTime: </b>2021-12-01T17:00:55+01:00</p><p><b>collector: </b>Practitioner/69</p></div>"
        },
        "identifier": [
            {
                "system": "http://www.macsys.be/hl7/Specimen",
                "value": "011815333051"
            }
        ],
        "status": "available",
        "type": {
            "coding": [
                {
                    "system": "http://terminology.hl7.org/CodeSystem/v2-0487",
                    "code": "SER",
                    "display": "Serum"
                }
            ],
            "text": "Serum prolactine"
        },
        "subject": {
            "reference": "Patient/7164976"
        },
        "receivedTime": "2021-12-01T17:00:55+01:00",
        "collection": {
            "collectedDateTime": "2021-12-01T00:00:00+01:00",
            "collector": {
                "reference": "Practitioner/69"
            }
        }
    }
}
,{
    "fullUrl": "Specimen/012815333051",
    "resource": {
        "resourceType": "Specimen",
        "id": "012815333051",
        "meta": {
            "profile": [
                "https://www.ehealth.fgov.be/standards/fhir/StructureDefinition/be-specimen-laboratory"
            ]
        },
        "text": {
            "status": "generated",
            "div": "<div xmlns=\"http://www.w3.org/1999/xhtml\"><p><b>id: </b>012815333051</p><p><b>status: </b>available</p><p><b>type: </b>http://terminology.hl7.org/CodeSystem/v2-0487 UR Urine Urine</p><p><b>receivedTime: </b>2021-12-01T17:00:55+01:00</p><p><b>collector: </b>Practitioner/69</p></div>"
        },
        "identifier": [
            {
                "system": "http://www.macsys.be/hl7/Specimen",
                "value": "012815333051"
            }
        ],
        "status": "available",
        "type": {
            "coding": [
                {
                    "system": "http://terminology.hl7.org/CodeSystem/v2-0487",
                    "code": "UR",
                    "display": "Urine"
                }
            ],
            "text": "Urine"
        },
        "subject": {
            "reference": "Patient/7164976"
        },
        "receivedTime": "2021-12-01T17:00:55+01:00",
        "collection": {
            "collectedDateTime": "2021-12-01T00:00:00+01:00",
            "collector": {
                "reference": "Practitioner/69"
            }
        }
    }
}
,{
    "fullUrl": "Specimen/013815333051",
    "resource": {
        "resourceType": "Specimen",
        "id": "013815333051",
        "meta": {
            "profile": [
                "https://www.ehealth.fgov.be/standards/fhir/StructureDefinition/be-specimen-laboratory"
            ]
        },
        "text": {
            "status": "generated",
            "div": "<div xmlns=\"http://www.w3.org/1999/xhtml\"><p><b>id: </b>013815333051</p><p><b>status: </b>available</p><p><b>type: </b>http://terminology.hl7.org/CodeSystem/v2-0487 BLDV Blood venous Citraatvolbloed</p><p><b>receivedTime: </b>2021-12-01T17:00:55+01:00</p><p><b>collector: </b>Practitioner/69</p></div>"
        },
        "identifier": [
            {
                "system": "http://www.macsys.be/hl7/Specimen",
                "value": "013815333051"
            }
        ],
        "status": "available",
        "type": {
            "coding": [
                {
                    "system": "http://terminology.hl7.org/CodeSystem/v2-0487",
                    "code": "BLDV",
                    "display": "Blood venous"
                }
            ],
            "text": "Citraatvolbloed"
        },
        "subject": {
            "reference": "Patient/7164976"
        },
        "receivedTime": "2021-12-01T17:00:55+01:00",
        "collection": {
            "collectedDateTime": "2021-12-01T00:00:00+01:00",
            "collector": {
                "reference": "Practitioner/69"
            }
        }
    }
}
,{
    "fullUrl": "Observation/Observation.1.0.0.0",
    "resource": {
        "resourceType": "Observation",
        "id": "Observation.1.0.0.0",
        "meta": {
            "profile": [
                "https://www.ehealth.fgov.be/standards/fhir/StructureDefinition/be-observation-laboratory"
            ]
        },
        "text": {
            "status": "generated",
            "div": "<div xmlns=\"http://www.w3.org/1999/xhtml\"><p><b>code: </b>HEMATOLOGIE</p><p><b>subject: </b>Patient/7164976</p><p><b>effective: </b>2021-12-01T00:00:00+01:00</p><p><b>performer: </b>Practitioner/Responsible</p><p><b>member: </b> // Observation/Observation.1.0.0.1 // Observation/Observation.1.0.0.2 // Observation/Observation.1.0.0.3 // </p></div>"
        },
        "status": "final",
        "code": {
            "text": "HEMATOLOGIE"
        },
        "subject": {
            "reference": "Patient/7164976"
        },
        "effectiveDateTime": "2021-12-01T00:00:00+01:00",
        "performer": [
            {
                "reference": "Practitioner/Responsible"
            }
        ],
        "hasMember": [
            {
                "reference": "Observation/Observation.1.0.0.1"
            },
            {
                "reference": "Observation/Observation.1.0.0.2"
            },
            {
                "reference": "Observation/Observation.1.0.0.3"
            }
        ]
    }
}
,{
    "fullUrl": "Observation/Observation.1.0.0.1",
    "resource": {
        "resourceType": "Observation",
        "id": "Observation.1.0.0.1",
        "meta": {
            "profile": [
                "https://www.ehealth.fgov.be/standards/fhir/StructureDefinition/be-observation-laboratory"
            ]
        },
        "text": {
            "status": "generated",
            "div": "<div xmlns=\"http://www.w3.org/1999/xhtml\"><p><b>code: </b>http://loinc.org 2498-4 IJzer</p><p><b>subject: </b>Patient/7164976</p><p><b>effective: </b>2021-12-01T00:00:00+01:00</p><p><b>performer: </b>Practitioner/Responsible</p><p><b>result: </b>85 ug/dL</p><p><b>specimen: </b>Specimen/002815333051</p><p><b>referenceRange: </b> // Low: 65 ug/dL // High: 175 ug/dL // </p></div>"
        },
        "status": "final",
        "code": {
            "coding": [
                {
                    "system": "http://loinc.org",
                    "code": "2498-4"
                }
            ],
            "text": "IJzer"
        },
        "subject": {
            "reference": "Patient/7164976"
        },
        "effectiveDateTime": "2021-12-01T00:00:00+01:00",
        "issued": "2021-12-01T17:01:41+01:00",
        "performer": [
            {
                "reference": "Practitioner/Responsible"
            }
        ],
        "valueQuantity": {
            "value": 85,
            "unit": "ug/dL",
            "system": "http://unitsofmeasure.org",
            "code": "ug/dL"
        },
        "specimen": {
            "reference": "Specimen/002815333051"
        },
        "referenceRange": [
            {
                "low": {
                    "value": 65,
                    "unit": "ug/dL",
                    "system": "http://unitsofmeasure.org",
                    "code": "ug/dL"
                },
                "high": {
                    "value": 175,
                    "unit": "ug/dL",
                    "system": "http://unitsofmeasure.org",
                    "code": "ug/dL"
                }
            }
        ]
    }
}
,{
    "fullUrl": "Observation/Observation.1.0.0.2",
    "resource": {
        "resourceType": "Observation",
        "id": "Observation.1.0.0.2",
        "meta": {
            "profile": [
                "https://www.ehealth.fgov.be/standards/fhir/StructureDefinition/be-observation-laboratory"
            ]
        },
        "text": {
            "status": "generated",
            "div": "<div xmlns=\"http://www.w3.org/1999/xhtml\"><p><b>code: </b>http://loinc.org 3034-6 Transferrine</p><p><b>subject: </b>Patient/7164976</p><p><b>effective: </b>2021-12-01T00:00:00+01:00</p><p><b>performer: </b>Practitioner/Responsible</p><p><b>result: </b>2,04 g/L</p><p><b>specimen: </b>Specimen/002815333051</p><p><b>referenceRange: </b> // Low: 2,00 g/L // High: 3,60 g/L // </p></div>"
        },
        "status": "final",
        "code": {
            "coding": [
                {
                    "system": "http://loinc.org",
                    "code": "3034-6"
                }
            ],
            "text": "Transferrine"
        },
        "subject": {
            "reference": "Patient/7164976"
        },
        "effectiveDateTime": "2021-12-01T00:00:00+01:00",
        "issued": "2021-12-01T17:01:52+01:00",
        "performer": [
            {
                "reference": "Practitioner/Responsible"
            }
        ],
        "valueQuantity": {
            "value": 2.04,
            "unit": "g/L",
            "system": "http://unitsofmeasure.org",
            "code": "g/L"
        },
        "specimen": {
            "reference": "Specimen/002815333051"
        },
        "referenceRange": [
            {
                "low": {
                    "value": 2.00,
                    "unit": "g/L",
                    "system": "http://unitsofmeasure.org",
                    "code": "g/L"
                },
                "high": {
                    "value": 3.60,
                    "unit": "g/L",
                    "system": "http://unitsofmeasure.org",
                    "code": "g/L"
                }
            }
        ]
    }
}
,{
    "fullUrl": "Observation/Observation.1.0.0.3",
    "resource": {
        "resourceType": "Observation",
        "id": "Observation.1.0.0.3",
        "meta": {
            "profile": [
                "https://www.ehealth.fgov.be/standards/fhir/StructureDefinition/be-observation-laboratory"
            ]
        },
        "text": {
            "status": "generated",
            "div": "<div xmlns=\"http://www.w3.org/1999/xhtml\"><p><b>code: </b>http://loinc.org 2502-3 IJzersaturatie</p><p><b>subject: </b>Patient/7164976</p><p><b>effective: </b>2021-12-01T00:00:00+01:00</p><p><b>performer: </b>Practitioner/Responsible</p><p><b>result: </b>33 %</p><p><b>specimen: </b>Specimen/002815333051</p><p><b>referenceRange: </b> // Low: 20 % // High: 50 % // Voorwaarde: bloed 's ochtends afgenomen.\r\n // </p></div>"
        },
        "status": "final",
        "code": {
            "coding": [
                {
                    "system": "http://loinc.org",
                    "code": "2502-3"
                }
            ],
            "text": "IJzersaturatie"
        },
        "subject": {
            "reference": "Patient/7164976"
        },
        "effectiveDateTime": "2021-12-01T00:00:00+01:00",
        "issued": "2021-12-01T17:01:52+01:00",
        "performer": [
            {
                "reference": "Practitioner/Responsible"
            }
        ],
        "valueQuantity": {
            "value": 33,
            "unit": "%",
            "system": "http://unitsofmeasure.org",
            "code": "%"
        },
        "specimen": {
            "reference": "Specimen/002815333051"
        },
        "referenceRange": [
            {
                "low": {
                    "value": 20,
                    "unit": "%",
                    "system": "http://unitsofmeasure.org",
                    "code": "%"
                },
                "high": {
                    "value": 50,
                    "unit": "%",
                    "system": "http://unitsofmeasure.org",
                    "code": "%"
                },
                "text": "Voorwaarde: bloed 's ochtends afgenomen.\r\n"
            }
        ]
    }
}
,{
    "fullUrl": "Observation/Observation.2.0.0.0",
    "resource": {
        "resourceType": "Observation",
        "id": "Observation.2.0.0.0",
        "meta": {
            "profile": [
                "https://www.ehealth.fgov.be/standards/fhir/StructureDefinition/be-observation-laboratory"
            ]
        },
        "text": {
            "status": "generated",
            "div": "<div xmlns=\"http://www.w3.org/1999/xhtml\"><p><b>code: </b>STOLLING</p><p><b>subject: </b>Patient/7164976</p><p><b>effective: </b>2021-12-01T00:00:00+01:00</p><p><b>performer: </b>Practitioner/Responsible</p><p><b>member: </b> // Observation/Observation.2.0.0.1 // Observation/Observation.2.0.0.2 // Observation/Observation.2.0.0.3 // Observation/Observation.2.0.0.4 // </p></div>"
        },
        "status": "final",
        "code": {
            "text": "STOLLING"
        },
        "subject": {
            "reference": "Patient/7164976"
        },
        "effectiveDateTime": "2021-12-01T00:00:00+01:00",
        "performer": [
            {
                "reference": "Practitioner/Responsible"
            }
        ],
        "hasMember": [
            {
                "reference": "Observation/Observation.2.0.0.1"
            },
            {
                "reference": "Observation/Observation.2.0.0.2"
            },
            {
                "reference": "Observation/Observation.2.0.0.3"
            },
            {
                "reference": "Observation/Observation.2.0.0.4"
            }
        ]
    }
}
,{
    "fullUrl": "Observation/Observation.2.0.0.1",
    "resource": {
        "resourceType": "Observation",
        "id": "Observation.2.0.0.1",
        "meta": {
            "profile": [
                "https://www.ehealth.fgov.be/standards/fhir/StructureDefinition/be-observation-laboratory"
            ]
        },
        "text": {
            "status": "generated",
            "div": "<div xmlns=\"http://www.w3.org/1999/xhtml\"><p><b>code: </b>http://loinc.org 6301-6 INR</p><p><b>subject: </b>Patient/7164976</p><p><b>effective: </b>2021-12-01T00:00:00+01:00</p><p><b>performer: </b>Practitioner/Responsible</p><p><b>result: </b>(Voorlopig) geen citraattube ontvangen</p><p><b>specimen: </b>Specimen/013815333051</p><p><b>referenceRange: </b> // High: 1,2 {} // </p></div>"
        },
        "status": "final",
        "code": {
            "coding": [
                {
                    "system": "http://loinc.org",
                    "code": "6301-6"
                }
            ],
            "text": "INR"
        },
        "subject": {
            "reference": "Patient/7164976"
        },
        "effectiveDateTime": "2021-12-01T00:00:00+01:00",
        "issued": "2021-12-20T10:56:06+01:00",
        "performer": [
            {
                "reference": "Practitioner/Responsible"
            }
        ],
        "valueString": "(Voorlopig) geen citraattube ontvangen",
        "specimen": {
            "reference": "Specimen/013815333051"
        },
        "referenceRange": [
            {
                "high": {
                    "value": 1.2,
                    "unit": "{}",
                    "system": "http://unitsofmeasure.org",
                    "code": "{}"
                }
            }
        ]
    }
}
,{
    "fullUrl": "Observation/Observation.2.0.0.2",
    "resource": {
        "resourceType": "Observation",
        "id": "Observation.2.0.0.2",
        "meta": {
            "profile": [
                "https://www.ehealth.fgov.be/standards/fhir/StructureDefinition/be-observation-laboratory"
            ]
        },
        "text": {
            "status": "generated",
            "div": "<div xmlns=\"http://www.w3.org/1999/xhtml\"><p><b>code: </b>http://loinc.org 5894-1 PT (Quick)</p><p><b>subject: </b>Patient/7164976</p><p><b>effective: </b>2021-12-01T00:00:00+01:00</p><p><b>performer: </b>Practitioner/Responsible</p><p><b>result: </b>(Voorlopig) geen citraattube ontvangen</p><p><b>specimen: </b>Specimen/013815333051</p><p><b>referenceRange: </b> // Low: 65 % // </p></div>"
        },
        "status": "final",
        "code": {
            "coding": [
                {
                    "system": "http://loinc.org",
                    "code": "5894-1"
                }
            ],
            "text": "PT (Quick)"
        },
        "subject": {
            "reference": "Patient/7164976"
        },
        "effectiveDateTime": "2021-12-01T00:00:00+01:00",
        "issued": "2021-12-20T10:56:09+01:00",
        "performer": [
            {
                "reference": "Practitioner/Responsible"
            }
        ],
        "valueString": "(Voorlopig) geen citraattube ontvangen",
        "specimen": {
            "reference": "Specimen/013815333051"
        },
        "referenceRange": [
            {
                "low": {
                    "value": 65,
                    "unit": "%",
                    "system": "http://unitsofmeasure.org",
                    "code": "%"
                }
            }
        ]
    }
}
,{
    "fullUrl": "Observation/Observation.2.0.0.3",
    "resource": {
        "resourceType": "Observation",
        "id": "Observation.2.0.0.3",
        "meta": {
            "profile": [
                "https://www.ehealth.fgov.be/standards/fhir/StructureDefinition/be-observation-laboratory"
            ]
        },
        "text": {
            "status": "generated",
            "div": "<div xmlns=\"http://www.w3.org/1999/xhtml\"><p><b>code: </b>http://loinc.org 53570-8 aPTT</p><p><b>subject: </b>Patient/7164976</p><p><b>effective: </b>2021-12-01T00:00:00+01:00</p><p><b>performer: </b>Practitioner/Responsible</p><p><b>result: </b>(Voorlopig) geen citraattube ontvangen</p><p><b>specimen: </b>Specimen/013815333051</p><p><b>referenceRange: </b> // Low: 20,0 s // High: 33,0 s // </p></div>"
        },
        "status": "final",
        "code": {
            "coding": [
                {
                    "system": "http://loinc.org",
                    "code": "53570-8"
                }
            ],
            "text": "aPTT"
        },
        "subject": {
            "reference": "Patient/7164976"
        },
        "effectiveDateTime": "2021-12-01T00:00:00+01:00",
        "issued": "2021-12-20T10:56:10+01:00",
        "performer": [
            {
                "reference": "Practitioner/Responsible"
            }
        ],
        "valueString": "(Voorlopig) geen citraattube ontvangen",
        "specimen": {
            "reference": "Specimen/013815333051"
        },
        "referenceRange": [
            {
                "low": {
                    "value": 20.0,
                    "unit": "s",
                    "system": "http://unitsofmeasure.org",
                    "code": "s"
                },
                "high": {
                    "value": 33.0,
                    "unit": "s",
                    "system": "http://unitsofmeasure.org",
                    "code": "s"
                }
            }
        ]
    }
}
,{
    "fullUrl": "Observation/Observation.2.0.0.4",
    "resource": {
        "resourceType": "Observation",
        "id": "Observation.2.0.0.4",
        "meta": {
            "profile": [
                "https://www.ehealth.fgov.be/standards/fhir/StructureDefinition/be-observation-laboratory"
            ]
        },
        "text": {
            "status": "generated",
            "div": "<div xmlns=\"http://www.w3.org/1999/xhtml\"><p><b>code: </b>http://loinc.org 3255-7 Fibrinogeen</p><p><b>subject: </b>Patient/7164976</p><p><b>effective: </b>2021-12-01T00:00:00+01:00</p><p><b>performer: </b>Practitioner/Responsible</p><p><b>result: </b>(Voorlopig) geen citraattube ontvangen</p><p><b>specimen: </b>Specimen/013815333051</p><p><b>referenceRange: </b> // Low: 170 mg/dL // High: 420 mg/dL // </p></div>"
        },
        "status": "final",
        "code": {
            "coding": [
                {
                    "system": "http://loinc.org",
                    "code": "3255-7"
                }
            ],
            "text": "Fibrinogeen"
        },
        "subject": {
            "reference": "Patient/7164976"
        },
        "effectiveDateTime": "2021-12-01T00:00:00+01:00",
        "issued": "2021-12-20T10:56:12+01:00",
        "performer": [
            {
                "reference": "Practitioner/Responsible"
            }
        ],
        "valueString": "(Voorlopig) geen citraattube ontvangen",
        "specimen": {
            "reference": "Specimen/013815333051"
        },
        "referenceRange": [
            {
                "low": {
                    "value": 170,
                    "unit": "mg/dL",
                    "system": "http://unitsofmeasure.org",
                    "code": "mg/dL"
                },
                "high": {
                    "value": 420,
                    "unit": "mg/dL",
                    "system": "http://unitsofmeasure.org",
                    "code": "mg/dL"
                }
            }
        ]
    }
}
,{
    "fullUrl": "Observation/Observation.3.0.0.0",
    "resource": {
        "resourceType": "Observation",
        "id": "Observation.3.0.0.0",
        "meta": {
            "profile": [
                "https://www.ehealth.fgov.be/standards/fhir/StructureDefinition/be-observation-laboratory"
            ]
        },
        "text": {
            "status": "generated",
            "div": "<div xmlns=\"http://www.w3.org/1999/xhtml\"><p><b>code: </b>NUTRITIE</p><p><b>subject: </b>Patient/7164976</p><p><b>effective: </b>2021-12-01T00:00:00+01:00</p><p><b>performer: </b>Practitioner/Responsible</p><p><b>member: </b> // Observation/Observation.3.0.0.1 // Observation/Observation.3.0.0.2 // </p></div>"
        },
        "status": "final",
        "code": {
            "text": "NUTRITIE"
        },
        "subject": {
            "reference": "Patient/7164976"
        },
        "effectiveDateTime": "2021-12-01T00:00:00+01:00",
        "performer": [
            {
                "reference": "Practitioner/Responsible"
            }
        ],
        "hasMember": [
            {
                "reference": "Observation/Observation.3.0.0.1"
            },
            {
                "reference": "Observation/Observation.3.0.0.2"
            }
        ]
    }
}
,{
    "fullUrl": "Observation/Observation.3.0.0.1",
    "resource": {
        "resourceType": "Observation",
        "id": "Observation.3.0.0.1",
        "meta": {
            "profile": [
                "https://www.ehealth.fgov.be/standards/fhir/StructureDefinition/be-observation-laboratory"
            ]
        },
        "text": {
            "status": "generated",
            "div": "<div xmlns=\"http://www.w3.org/1999/xhtml\"><p><b>code: </b>http://loinc.org 5631-7 Koper</p><p><b>subject: </b>Patient/7164976</p><p><b>effective: </b>2021-12-01T00:00:00+01:00</p><p><b>performer: </b>Practitioner/Responsible</p><p><b>result: </b>130 ug/dL</p><p><b>specimen: </b>Specimen/002815333051</p><p><b>referenceRange: </b> // Low: 70 ug/dL // High: 140 ug/dL // </p></div>"
        },
        "status": "final",
        "code": {
            "coding": [
                {
                    "system": "http://loinc.org",
                    "code": "5631-7"
                }
            ],
            "text": "Koper"
        },
        "subject": {
            "reference": "Patient/7164976"
        },
        "effectiveDateTime": "2021-12-01T00:00:00+01:00",
        "issued": "2021-12-01T17:02:03+01:00",
        "performer": [
            {
                "reference": "Practitioner/Responsible"
            }
        ],
        "valueQuantity": {
            "value": 130,
            "unit": "ug/dL",
            "system": "http://unitsofmeasure.org",
            "code": "ug/dL"
        },
        "specimen": {
            "reference": "Specimen/002815333051"
        },
        "referenceRange": [
            {
                "low": {
                    "value": 70,
                    "unit": "ug/dL",
                    "system": "http://unitsofmeasure.org",
                    "code": "ug/dL"
                },
                "high": {
                    "value": 140,
                    "unit": "ug/dL",
                    "system": "http://unitsofmeasure.org",
                    "code": "ug/dL"
                }
            }
        ]
    }
}
,{
    "fullUrl": "Observation/Observation.3.0.0.2",
    "resource": {
        "resourceType": "Observation",
        "id": "Observation.3.0.0.2",
        "meta": {
            "profile": [
                "https://www.ehealth.fgov.be/standards/fhir/StructureDefinition/be-observation-laboratory"
            ]
        },
        "text": {
            "status": "generated",
            "div": "<div xmlns=\"http://www.w3.org/1999/xhtml\"><p><b>code: </b>http://www.macsys.be/hl7/testcode MED12389 Ratio koper/ijzer</p><p><b>subject: </b>Patient/7164976</p><p><b>effective: </b>2021-12-01T00:00:00+01:00</p><p><b>performer: </b>Practitioner/Responsible</p><p><b>result: </b>1,53 {}</p><p><b>specimen: </b>Specimen/002815333051</p></div>"
        },
        "status": "final",
        "code": {
            "coding": [
                {
                    "system": "http://www.macsys.be/hl7/testcode",
                    "code": "MED12389"
                }
            ],
            "text": "Ratio koper/ijzer"
        },
        "subject": {
            "reference": "Patient/7164976"
        },
        "effectiveDateTime": "2021-12-01T00:00:00+01:00",
        "issued": "2021-12-01T17:02:03+01:00",
        "performer": [
            {
                "reference": "Practitioner/Responsible"
            }
        ],
        "valueQuantity": {
            "value": 1.53,
            "unit": "{}",
            "system": "http://unitsofmeasure.org",
            "code": "{}"
        },
        "specimen": {
            "reference": "Specimen/002815333051"
        }
    }
}
,{
    "fullUrl": "Observation/Observation.4.0.0.0",
    "resource": {
        "resourceType": "Observation",
        "id": "Observation.4.0.0.0",
        "meta": {
            "profile": [
                "https://www.ehealth.fgov.be/standards/fhir/StructureDefinition/be-observation-laboratory"
            ]
        },
        "text": {
            "status": "generated",
            "div": "<div xmlns=\"http://www.w3.org/1999/xhtml\"><p><b>code: </b>EIWITMETABOLISME</p><p><b>subject: </b>Patient/7164976</p><p><b>effective: </b>2021-12-01T00:00:00+01:00</p><p><b>performer: </b>Practitioner/Responsible</p><p><b>member: </b> // Observation/Observation.4.1.0.0 // Observation/Observation.4.2.0.1 // </p></div>"
        },
        "status": "final",
        "code": {
            "text": "EIWITMETABOLISME"
        },
        "subject": {
            "reference": "Patient/7164976"
        },
        "effectiveDateTime": "2021-12-01T00:00:00+01:00",
        "performer": [
            {
                "reference": "Practitioner/Responsible"
            }
        ],
        "hasMember": [
            {
                "reference": "Observation/Observation.4.1.0.0"
            },
            {
                "reference": "Observation/Observation.4.2.0.1"
            }
        ]
    }
}
,{
    "fullUrl": "Observation/Observation.4.1.0.0",
    "resource": {
        "resourceType": "Observation",
        "id": "Observation.4.1.0.0",
        "meta": {
            "profile": [
                "https://www.ehealth.fgov.be/standards/fhir/StructureDefinition/be-observation-laboratory"
            ]
        },
        "text": {
            "status": "generated",
            "div": "<div xmlns=\"http://www.w3.org/1999/xhtml\"><p><b>code: </b>Immuunglobulinen</p><p><b>subject: </b>Patient/7164976</p><p><b>effective: </b>2021-12-01T00:00:00+01:00</p><p><b>performer: </b>Practitioner/Responsible</p><p><b>member: </b> // Observation/Observation.4.1.0.1 // </p></div>"
        },
        "status": "final",
        "code": {
            "text": "Immuunglobulinen"
        },
        "subject": {
            "reference": "Patient/7164976"
        },
        "effectiveDateTime": "2021-12-01T00:00:00+01:00",
        "performer": [
            {
                "reference": "Practitioner/Responsible"
            }
        ],
        "hasMember": [
            {
                "reference": "Observation/Observation.4.1.0.1"
            }
        ]
    }
}
,{
    "fullUrl": "Observation/Observation.4.1.0.1",
    "resource": {
        "resourceType": "Observation",
        "id": "Observation.4.1.0.1",
        "meta": {
            "profile": [
                "https://www.ehealth.fgov.be/standards/fhir/StructureDefinition/be-observation-laboratory"
            ]
        },
        "text": {
            "status": "generated",
            "div": "<div xmlns=\"http://www.w3.org/1999/xhtml\"><p><b>code: </b>http://loinc.org 2458-8 IgA</p><p><b>subject: </b>Patient/7164976</p><p><b>effective: </b>2021-12-01T00:00:00+01:00</p><p><b>performer: </b>Practitioner/Responsible</p><p><b>result: </b>0,50 g/L</p><p><b>specimen: </b>Specimen/002815333051</p><p><b>interpretation: </b>L</p><p><b>referenceRange: </b> // Low: 0,70 g/L // High: 4,00 g/L // </p></div>"
        },
        "status": "final",
        "code": {
            "coding": [
                {
                    "system": "http://loinc.org",
                    "code": "2458-8"
                }
            ],
            "text": "IgA"
        },
        "subject": {
            "reference": "Patient/7164976"
        },
        "effectiveDateTime": "2021-12-01T00:00:00+01:00",
        "issued": "2021-12-01T17:02:14+01:00",
        "performer": [
            {
                "reference": "Practitioner/Responsible"
            }
        ],
        "valueQuantity": {
            "value": 0.50,
            "unit": "g/L",
            "system": "http://unitsofmeasure.org",
            "code": "g/L"
        },
        "interpretation": [
            {
                "coding": [
                    {
                        "system": "http://terminology.hl7.org/CodeSystem/v3-ObservationInterpretation",
                        "code": "L"
                    }
                ]
            }
        ],
        "specimen": {
            "reference": "Specimen/002815333051"
        },
        "referenceRange": [
            {
                "low": {
                    "value": 0.70,
                    "unit": "g/L",
                    "system": "http://unitsofmeasure.org",
                    "code": "g/L"
                },
                "high": {
                    "value": 4.00,
                    "unit": "g/L",
                    "system": "http://unitsofmeasure.org",
                    "code": "g/L"
                }
            }
        ]
    }
}
,{
    "fullUrl": "Observation/Observation.4.2.0.1",
    "resource": {
        "resourceType": "Observation",
        "id": "Observation.4.2.0.1",
        "meta": {
            "profile": [
                "https://www.ehealth.fgov.be/standards/fhir/StructureDefinition/be-observation-laboratory"
            ]
        },
        "text": {
            "status": "generated",
            "div": "<div xmlns=\"http://www.w3.org/1999/xhtml\"><p><b>code: </b>http://www.macsys.be/hl7/testcode MED12616 Ratio IgA/transferrine</p><p><b>subject: </b>Patient/7164976</p><p><b>effective: </b>2021-12-01T00:00:00+01:00</p><p><b>performer: </b>Practitioner/Responsible</p><p><b>result: </b>0,2 {ratio}</p><p><b>specimen: </b>Specimen/002815333051</p><p><b>referenceRange: </b> // High: 1,7 {ratio} // &gt;3,0  cirrhose // </p></div>"
        },
        "status": "final",
        "code": {
            "coding": [
                {
                    "system": "http://www.macsys.be/hl7/testcode",
                    "code": "MED12616"
                }
            ],
            "text": "Ratio IgA/transferrine"
        },
        "subject": {
            "reference": "Patient/7164976"
        },
        "effectiveDateTime": "2021-12-01T00:00:00+01:00",
        "issued": "2021-12-01T17:02:14+01:00",
        "performer": [
            {
                "reference": "Practitioner/Responsible"
            }
        ],
        "valueQuantity": {
            "value": 0.2,
            "unit": "{ratio}",
            "system": "http://unitsofmeasure.org",
            "code": "{ratio}"
        },
        "specimen": {
            "reference": "Specimen/002815333051"
        },
        "referenceRange": [
            {
                "high": {
                    "value": 1.7,
                    "unit": "{ratio}",
                    "system": "http://unitsofmeasure.org",
                    "code": "{ratio}"
                },
                "text": ">3,0  cirrhose"
            }
        ]
    }
}
,{
    "fullUrl": "Observation/Observation.5.0.0.0",
    "resource": {
        "resourceType": "Observation",
        "id": "Observation.5.0.0.0",
        "meta": {
            "profile": [
                "https://www.ehealth.fgov.be/standards/fhir/StructureDefinition/be-observation-laboratory"
            ]
        },
        "text": {
            "status": "generated",
            "div": "<div xmlns=\"http://www.w3.org/1999/xhtml\"><p><b>code: </b>KOOLHYDRATENMETABOLISME</p><p><b>subject: </b>Patient/7164976</p><p><b>effective: </b>2021-12-01T00:00:00+01:00</p><p><b>performer: </b>Practitioner/Responsible</p><p><b>member: </b> // Observation/Observation.5.0.0.1 // Observation/Observation.5.0.0.2 // Observation/Observation.5.0.0.3 // </p></div>"
        },
        "status": "final",
        "code": {
            "text": "KOOLHYDRATENMETABOLISME"
        },
        "subject": {
            "reference": "Patient/7164976"
        },
        "effectiveDateTime": "2021-12-01T00:00:00+01:00",
        "performer": [
            {
                "reference": "Practitioner/Responsible"
            }
        ],
        "hasMember": [
            {
                "reference": "Observation/Observation.5.0.0.1"
            },
            {
                "reference": "Observation/Observation.5.0.0.2"
            },
            {
                "reference": "Observation/Observation.5.0.0.3"
            }
        ]
    }
}
,{
    "fullUrl": "Observation/Observation.5.0.0.1",
    "resource": {
        "resourceType": "Observation",
        "id": "Observation.5.0.0.1",
        "meta": {
            "profile": [
                "https://www.ehealth.fgov.be/standards/fhir/StructureDefinition/be-observation-laboratory"
            ]
        },
        "text": {
            "status": "generated",
            "div": "<div xmlns=\"http://www.w3.org/1999/xhtml\"><p><b>code: </b>http://loinc.org 53049-3 Glucose nuchter</p><p><b>subject: </b>Patient/7164976</p><p><b>effective: </b>2021-12-01T00:00:00+01:00</p><p><b>performer: </b>Practitioner/Responsible</p><p><b>result: </b>101 mg/dL</p><p><b>specimen: </b>Specimen/001815333051</p><p><b>interpretation: </b>H</p><p><b>referenceRange: </b> // Low: 70 mg/dL // High: 99 mg/dL // </p></div>"
        },
        "status": "final",
        "code": {
            "coding": [
                {
                    "system": "http://loinc.org",
                    "code": "53049-3"
                }
            ],
            "text": "Glucose nuchter"
        },
        "subject": {
            "reference": "Patient/7164976"
        },
        "effectiveDateTime": "2021-12-01T00:00:00+01:00",
        "issued": "2021-12-01T17:02:29+01:00",
        "performer": [
            {
                "reference": "Practitioner/Responsible"
            }
        ],
        "valueQuantity": {
            "value": 101,
            "unit": "mg/dL",
            "system": "http://unitsofmeasure.org",
            "code": "mg/dL"
        },
        "interpretation": [
            {
                "coding": [
                    {
                        "system": "http://terminology.hl7.org/CodeSystem/v3-ObservationInterpretation",
                        "code": "H"
                    }
                ]
            }
        ],
        "specimen": {
            "reference": "Specimen/001815333051"
        },
        "referenceRange": [
            {
                "low": {
                    "value": 70,
                    "unit": "mg/dL",
                    "system": "http://unitsofmeasure.org",
                    "code": "mg/dL"
                },
                "high": {
                    "value": 99,
                    "unit": "mg/dL",
                    "system": "http://unitsofmeasure.org",
                    "code": "mg/dL"
                }
            }
        ]
    }
}
,{
    "fullUrl": "Observation/Observation.5.0.0.2",
    "resource": {
        "resourceType": "Observation",
        "id": "Observation.5.0.0.2",
        "meta": {
            "profile": [
                "https://www.ehealth.fgov.be/standards/fhir/StructureDefinition/be-observation-laboratory"
            ]
        },
        "text": {
            "status": "generated",
            "div": "<div xmlns=\"http://www.w3.org/1999/xhtml\"><p><b>code: </b>http://loinc.org 14796-7 Insuline nuchter</p><p><b>subject: </b>Patient/7164976</p><p><b>effective: </b>2021-12-01T00:00:00+01:00</p><p><b>performer: </b>Practitioner/Responsible</p><p><b>result: </b>89,0 pmol/L</p><p><b>specimen: </b>Specimen/002815333051</p><p><b>referenceRange: </b> // Low: 18,0 pmol/L // High: 173,0 pmol/L // Referentiewaarden enkel geldig bij nuchtere bloedname. // </p></div>"
        },
        "status": "final",
        "code": {
            "coding": [
                {
                    "system": "http://loinc.org",
                    "code": "14796-7"
                }
            ],
            "text": "Insuline nuchter"
        },
        "subject": {
            "reference": "Patient/7164976"
        },
        "effectiveDateTime": "2021-12-01T00:00:00+01:00",
        "issued": "2021-12-01T17:02:35+01:00",
        "performer": [
            {
                "reference": "Practitioner/Responsible"
            }
        ],
        "valueQuantity": {
            "value": 89.0,
            "unit": "pmol/L",
            "system": "http://unitsofmeasure.org",
            "code": "pmol/L"
        },
        "specimen": {
            "reference": "Specimen/002815333051"
        },
        "referenceRange": [
            {
                "low": {
                    "value": 18.0,
                    "unit": "pmol/L",
                    "system": "http://unitsofmeasure.org",
                    "code": "pmol/L"
                },
                "high": {
                    "value": 173.0,
                    "unit": "pmol/L",
                    "system": "http://unitsofmeasure.org",
                    "code": "pmol/L"
                },
                "text": "Referentiewaarden enkel geldig bij nuchtere bloedname."
            }
        ]
    }
}
,{
    "fullUrl": "Observation/Observation.5.0.0.3",
    "resource": {
        "resourceType": "Observation",
        "id": "Observation.5.0.0.3",
        "meta": {
            "profile": [
                "https://www.ehealth.fgov.be/standards/fhir/StructureDefinition/be-observation-laboratory"
            ]
        },
        "text": {
            "status": "generated",
            "div": "<div xmlns=\"http://www.w3.org/1999/xhtml\"><p><b>code: </b>http://www.macsys.be/hl7/testcode MED12258 HOMA 1 IR</p><p><b>subject: </b>Patient/7164976</p><p><b>effective: </b>2021-12-01T00:00:00+01:00</p><p><b>performer: </b>Practitioner/Responsible</p><p><b>result: </b>3,2 {}</p><p><b>specimen: </b>Specimen/002815333051</p><p><b>interpretation: </b>H</p><p><b>referenceRange: </b> // High: 2,3 {} // Indicatief voor metabool syndroom      &gt;2,3\r\nIndicatief voor insuline resistentie   &gt;2,7 // </p></div>"
        },
        "status": "final",
        "code": {
            "coding": [
                {
                    "system": "http://www.macsys.be/hl7/testcode",
                    "code": "MED12258"
                }
            ],
            "text": "HOMA 1 IR"
        },
        "subject": {
            "reference": "Patient/7164976"
        },
        "effectiveDateTime": "2021-12-01T00:00:00+01:00",
        "issued": "2021-12-01T17:02:35+01:00",
        "performer": [
            {
                "reference": "Practitioner/Responsible"
            }
        ],
        "valueQuantity": {
            "value": 3.2,
            "unit": "{}",
            "system": "http://unitsofmeasure.org",
            "code": "{}"
        },
        "interpretation": [
            {
                "coding": [
                    {
                        "system": "http://terminology.hl7.org/CodeSystem/v3-ObservationInterpretation",
                        "code": "H"
                    }
                ]
            }
        ],
        "specimen": {
            "reference": "Specimen/002815333051"
        },
        "referenceRange": [
            {
                "high": {
                    "value": 2.3,
                    "unit": "{}",
                    "system": "http://unitsofmeasure.org",
                    "code": "{}"
                },
                "text": "Indicatief voor metabool syndroom      >2,3\r\nIndicatief voor insuline resistentie   >2,7"
            }
        ]
    }
}
,{
    "fullUrl": "Observation/Observation.6.0.0.0",
    "resource": {
        "resourceType": "Observation",
        "id": "Observation.6.0.0.0",
        "meta": {
            "profile": [
                "https://www.ehealth.fgov.be/standards/fhir/StructureDefinition/be-observation-laboratory"
            ]
        },
        "text": {
            "status": "generated",
            "div": "<div xmlns=\"http://www.w3.org/1999/xhtml\"><p><b>code: </b>GONADEN</p><p><b>subject: </b>Patient/7164976</p><p><b>effective: </b>2021-12-01T00:00:00+01:00</p><p><b>performer: </b>Practitioner/Responsible</p><p><b>member: </b> // Observation/Observation.6.0.0.1 // Observation/Observation.6.0.0.2 // Observation/Observation.6.0.0.3 // </p></div>"
        },
        "status": "final",
        "code": {
            "text": "GONADEN"
        },
        "subject": {
            "reference": "Patient/7164976"
        },
        "effectiveDateTime": "2021-12-01T00:00:00+01:00",
        "performer": [
            {
                "reference": "Practitioner/Responsible"
            }
        ],
        "hasMember": [
            {
                "reference": "Observation/Observation.6.0.0.1"
            },
            {
                "reference": "Observation/Observation.6.0.0.2"
            },
            {
                "reference": "Observation/Observation.6.0.0.3"
            }
        ]
    }
}
,{
    "fullUrl": "Observation/Observation.6.0.0.1",
    "resource": {
        "resourceType": "Observation",
        "id": "Observation.6.0.0.1",
        "meta": {
            "profile": [
                "https://www.ehealth.fgov.be/standards/fhir/StructureDefinition/be-observation-laboratory"
            ]
        },
        "text": {
            "status": "generated",
            "div": "<div xmlns=\"http://www.w3.org/1999/xhtml\"><p><b>code: </b>http://loinc.org 2842-3 Prolactine</p><p><b>subject: </b>Patient/7164976</p><p><b>effective: </b>2021-12-01T00:00:00+01:00</p><p><b>performer: </b>Practitioner/Responsible</p><p><b>result: </b>82,6 ug/L</p><p><b>specimen: </b>Specimen/002815333051</p><p><b>interpretation: </b>H</p><p><b>referenceRange: </b> // Low: 4,0 ug/L // High: 15,2 ug/L // </p></div>"
        },
        "status": "final",
        "code": {
            "coding": [
                {
                    "system": "http://loinc.org",
                    "code": "2842-3"
                }
            ],
            "text": "Prolactine"
        },
        "subject": {
            "reference": "Patient/7164976"
        },
        "effectiveDateTime": "2021-12-01T00:00:00+01:00",
        "issued": "2021-12-01T17:06:23+01:00",
        "performer": [
            {
                "reference": "Practitioner/Responsible"
            }
        ],
        "valueQuantity": {
            "value": 82.6,
            "unit": "ug/L",
            "system": "http://unitsofmeasure.org",
            "code": "ug/L"
        },
        "interpretation": [
            {
                "coding": [
                    {
                        "system": "http://terminology.hl7.org/CodeSystem/v3-ObservationInterpretation",
                        "code": "H"
                    }
                ]
            }
        ],
        "specimen": {
            "reference": "Specimen/002815333051"
        },
        "referenceRange": [
            {
                "low": {
                    "value": 4.0,
                    "unit": "ug/L",
                    "system": "http://unitsofmeasure.org",
                    "code": "ug/L"
                },
                "high": {
                    "value": 15.2,
                    "unit": "ug/L",
                    "system": "http://unitsofmeasure.org",
                    "code": "ug/L"
                }
            }
        ]
    }
}
,{
    "fullUrl": "Observation/Observation.6.0.0.2",
    "resource": {
        "resourceType": "Observation",
        "id": "Observation.6.0.0.2",
        "meta": {
            "profile": [
                "https://www.ehealth.fgov.be/standards/fhir/StructureDefinition/be-observation-laboratory"
            ]
        },
        "text": {
            "status": "generated",
            "div": "<div xmlns=\"http://www.w3.org/1999/xhtml\"><p><b>code: </b>http://loinc.org 42607-2 Prolactine monomeer</p><p><b>subject: </b>Patient/7164976</p><p><b>effective: </b>2021-12-01T00:00:00+01:00</p><p><b>performer: </b>Practitioner/Responsible</p><p><b>result: </b>69,5 ug/L</p><p><b>specimen: </b>Specimen/011815333051</p><p><b>interpretation: </b>H</p><p><b>note: </b>Analyse uitgevoerd door extern labo.</p><p><b>referenceRange: </b> // Low: 2,9 ug/L // High: 11,6 ug/L // </p></div>"
        },
        "status": "final",
        "code": {
            "coding": [
                {
                    "system": "http://loinc.org",
                    "code": "42607-2"
                }
            ],
            "text": "Prolactine monomeer"
        },
        "subject": {
            "reference": "Patient/7164976"
        },
        "effectiveDateTime": "2021-12-01T00:00:00+01:00",
        "issued": "2021-12-01T17:06:42+01:00",
        "performer": [
            {
                "reference": "Practitioner/Responsible"
            }
        ],
        "valueQuantity": {
            "value": 69.5,
            "unit": "ug/L",
            "system": "http://unitsofmeasure.org",
            "code": "ug/L"
        },
        "interpretation": [
            {
                "coding": [
                    {
                        "system": "http://terminology.hl7.org/CodeSystem/v3-ObservationInterpretation",
                        "code": "H"
                    }
                ]
            }
        ],
        "note": [
            {
                "text": "Analyse uitgevoerd door extern labo."
            }
        ],
        "specimen": {
            "reference": "Specimen/011815333051"
        },
        "referenceRange": [
            {
                "low": {
                    "value": 2.9,
                    "unit": "ug/L",
                    "system": "http://unitsofmeasure.org",
                    "code": "ug/L"
                },
                "high": {
                    "value": 11.6,
                    "unit": "ug/L",
                    "system": "http://unitsofmeasure.org",
                    "code": "ug/L"
                }
            }
        ]
    }
}
,{
    "fullUrl": "Observation/Observation.6.0.0.3",
    "resource": {
        "resourceType": "Observation",
        "id": "Observation.6.0.0.3",
        "meta": {
            "profile": [
                "https://www.ehealth.fgov.be/standards/fhir/StructureDefinition/be-observation-laboratory"
            ]
        },
        "text": {
            "status": "generated",
            "div": "<div xmlns=\"http://www.w3.org/1999/xhtml\"><p><b>code: </b>http://loinc.org 38926-2 Macroprolactine</p><p><b>subject: </b>Patient/7164976</p><p><b>effective: </b>2021-12-01T00:00:00+01:00</p><p><b>performer: </b>Practitioner/Responsible</p><p><b>result: </b>Hyperprolactinemie</p><p><b>specimen: </b>Specimen/002815333051</p><p><b>note: </b>Analyse uitgevoerd door extern labo.</p></div>"
        },
        "status": "final",
        "code": {
            "coding": [
                {
                    "system": "http://loinc.org",
                    "code": "38926-2"
                }
            ],
            "text": "Macroprolactine"
        },
        "subject": {
            "reference": "Patient/7164976"
        },
        "effectiveDateTime": "2021-12-01T00:00:00+01:00",
        "issued": "2021-12-01T17:06:55+01:00",
        "performer": [
            {
                "reference": "Practitioner/Responsible"
            }
        ],
        "valueString": "Hyperprolactinemie",
        "note": [
            {
                "text": "Analyse uitgevoerd door extern labo."
            }
        ],
        "specimen": {
            "reference": "Specimen/002815333051"
        }
    }
}
,{
    "fullUrl": "Observation/Observation.7.0.0.0",
    "resource": {
        "resourceType": "Observation",
        "id": "Observation.7.0.0.0",
        "meta": {
            "profile": [
                "https://www.ehealth.fgov.be/standards/fhir/StructureDefinition/be-observation-laboratory"
            ]
        },
        "text": {
            "status": "generated",
            "div": "<div xmlns=\"http://www.w3.org/1999/xhtml\"><p><b>code: </b>SEROLOGIE</p><p><b>subject: </b>Patient/7164976</p><p><b>effective: </b>2021-12-01T00:00:00+01:00</p><p><b>performer: </b>Practitioner/Responsible</p><p><b>member: </b> // Observation/Observation.7.1.0.0 // </p></div>"
        },
        "status": "final",
        "code": {
            "text": "SEROLOGIE"
        },
        "subject": {
            "reference": "Patient/7164976"
        },
        "effectiveDateTime": "2021-12-01T00:00:00+01:00",
        "performer": [
            {
                "reference": "Practitioner/Responsible"
            }
        ],
        "hasMember": [
            {
                "reference": "Observation/Observation.7.1.0.0"
            }
        ]
    }
}
,{
    "fullUrl": "Observation/Observation.7.1.0.0",
    "resource": {
        "resourceType": "Observation",
        "id": "Observation.7.1.0.0",
        "meta": {
            "profile": [
                "https://www.ehealth.fgov.be/standards/fhir/StructureDefinition/be-observation-laboratory"
            ]
        },
        "text": {
            "status": "generated",
            "div": "<div xmlns=\"http://www.w3.org/1999/xhtml\"><p><b>code: </b>Bacterieel</p><p><b>subject: </b>Patient/7164976</p><p><b>effective: </b>2021-12-01T00:00:00+01:00</p><p><b>performer: </b>Practitioner/Responsible</p><p><b>member: </b> // Observation/Observation.7.1.0.1 // </p></div>"
        },
        "status": "final",
        "code": {
            "text": "Bacterieel"
        },
        "subject": {
            "reference": "Patient/7164976"
        },
        "effectiveDateTime": "2021-12-01T00:00:00+01:00",
        "performer": [
            {
                "reference": "Practitioner/Responsible"
            }
        ],
        "hasMember": [
            {
                "reference": "Observation/Observation.7.1.0.1"
            }
        ]
    }
}
,{
    "fullUrl": "Observation/Observation.7.1.0.1",
    "resource": {
        "resourceType": "Observation",
        "id": "Observation.7.1.0.1",
        "meta": {
            "profile": [
                "https://www.ehealth.fgov.be/standards/fhir/StructureDefinition/be-observation-laboratory"
            ]
        },
        "text": {
            "status": "generated",
            "div": "<div xmlns=\"http://www.w3.org/1999/xhtml\"><p><b>code: </b>http://loinc.org 5326-4 Bartonella henselae IgG</p><p><b>subject: </b>Patient/7164976</p><p><b>effective: </b>2021-12-01T00:00:00+01:00</p><p><b>performer: </b>Practitioner/Responsible</p><p><b>result: </b>Negatief</p><p><b>specimen: </b>Specimen/002815333051</p><p><b>note: </b>De IgM worden enkel bepaald als de IgG positief\r\nzijn. Er dient te worden opgemerkt dat de\r\nserologie negatief kan zijn in de acute fase. Als\r\nde klinische en epidemiologische context\r\nsuggestief zijn voor een Bartonella infectie is\r\neen latere serol</p><p><b>referenceRange: </b> // Negatief        &lt;1/320\r\nZwak positief    1/320\r\nPositief         1/640\r\nSterk positief  &gt;=1280 // </p></div>"
        },
        "status": "final",
        "code": {
            "coding": [
                {
                    "system": "http://loinc.org",
                    "code": "5326-4"
                }
            ],
            "text": "Bartonella henselae IgG"
        },
        "subject": {
            "reference": "Patient/7164976"
        },
        "effectiveDateTime": "2021-12-01T00:00:00+01:00",
        "issued": "2021-12-01T17:04:01+01:00",
        "performer": [
            {
                "reference": "Practitioner/Responsible"
            }
        ],
        "valueString": "Negatief",
        "note": [
            {
                "text": "De IgM worden enkel bepaald als de IgG positief\r\nzijn. Er dient te worden opgemerkt dat de\r\nserologie negatief kan zijn in de acute fase. Als\r\nde klinische en epidemiologische context\r\nsuggestief zijn voor een Bartonella infectie is\r\neen latere serologische controle (na minimum twee\r\nweken) aangewezen."
            },
            {
                "text": "Analyse uitgevoerd door extern labo."
            }
        ],
        "specimen": {
            "reference": "Specimen/002815333051"
        },
        "referenceRange": [
            {
                "text": "Negatief        <1/320\r\nZwak positief    1/320\r\nPositief         1/640\r\nSterk positief  >=1280"
            }
        ]
    }
}
,{
    "fullUrl": "Observation/Observation.8.0.0.0",
    "resource": {
        "resourceType": "Observation",
        "id": "Observation.8.0.0.0",
        "meta": {
            "profile": [
                "https://www.ehealth.fgov.be/standards/fhir/StructureDefinition/be-observation-laboratory"
            ]
        },
        "text": {
            "status": "generated",
            "div": "<div xmlns=\"http://www.w3.org/1999/xhtml\"><p><b>code: </b>DRUGMONITORING</p><p><b>subject: </b>Patient/7164976</p><p><b>effective: </b>2021-12-01T00:00:00+01:00</p><p><b>performer: </b>Practitioner/Responsible</p><p><b>member: </b> // Observation/Observation.8.0.0.1 // </p></div>"
        },
        "status": "final",
        "code": {
            "text": "DRUGMONITORING"
        },
        "subject": {
            "reference": "Patient/7164976"
        },
        "effectiveDateTime": "2021-12-01T00:00:00+01:00",
        "performer": [
            {
                "reference": "Practitioner/Responsible"
            }
        ],
        "hasMember": [
            {
                "reference": "Observation/Observation.8.0.0.1"
            }
        ]
    }
}
,{
    "fullUrl": "Observation/Observation.8.0.0.1",
    "resource": {
        "resourceType": "Observation",
        "id": "Observation.8.0.0.1",
        "meta": {
            "profile": [
                "https://www.ehealth.fgov.be/standards/fhir/StructureDefinition/be-observation-laboratory"
            ]
        },
        "text": {
            "status": "generated",
            "div": "<div xmlns=\"http://www.w3.org/1999/xhtml\"><p><b>code: </b>http://www.macsys.be/hl7/testcode MED18622 Ustekinumab</p><p><b>subject: </b>Patient/7164976</p><p><b>effective: </b>2021-12-01T00:00:00+01:00</p><p><b>performer: </b>Practitioner/Responsible</p><p><b>result: </b>2,5 ug/mL</p><p><b>specimen: </b>Specimen/002815333051</p><p><b>note: </b>Analyse uitgevoerd door extern labo.</p></div>"
        },
        "status": "final",
        "code": {
            "coding": [
                {
                    "system": "http://www.macsys.be/hl7/testcode",
                    "code": "MED18622"
                }
            ],
            "text": "Ustekinumab"
        },
        "subject": {
            "reference": "Patient/7164976"
        },
        "effectiveDateTime": "2021-12-01T00:00:00+01:00",
        "issued": "2021-12-01T17:07:48+01:00",
        "performer": [
            {
                "reference": "Practitioner/Responsible"
            }
        ],
        "valueQuantity": {
            "value": 2.5,
            "unit": "ug/mL",
            "system": "http://unitsofmeasure.org",
            "code": "ug/mL"
        },
        "note": [
            {
                "text": "Analyse uitgevoerd door extern labo."
            }
        ],
        "specimen": {
            "reference": "Specimen/002815333051"
        }
    }
}
,{
    "fullUrl": "Observation/Observation.9.0.0.0",
    "resource": {
        "resourceType": "Observation",
        "id": "Observation.9.0.0.0",
        "meta": {
            "profile": [
                "https://www.ehealth.fgov.be/standards/fhir/StructureDefinition/be-observation-laboratory"
            ]
        },
        "text": {
            "status": "generated",
            "div": "<div xmlns=\"http://www.w3.org/1999/xhtml\"><p><b>code: </b>TOXICOLOGIE URINE</p><p><b>subject: </b>Patient/7164976</p><p><b>effective: </b>2021-12-01T00:00:00+01:00</p><p><b>performer: </b>Practitioner/Responsible</p><p><b>member: </b> // Observation/Observation.9.0.0.1 // Observation/Observation.9.0.0.2 // </p></div>"
        },
        "status": "final",
        "code": {
            "text": "TOXICOLOGIE URINE"
        },
        "subject": {
            "reference": "Patient/7164976"
        },
        "effectiveDateTime": "2021-12-01T00:00:00+01:00",
        "performer": [
            {
                "reference": "Practitioner/Responsible"
            }
        ],
        "hasMember": [
            {
                "reference": "Observation/Observation.9.0.0.1"
            },
            {
                "reference": "Observation/Observation.9.0.0.2"
            }
        ]
    }
}
,{
    "fullUrl": "Observation/Observation.9.0.0.1",
    "resource": {
        "resourceType": "Observation",
        "id": "Observation.9.0.0.1",
        "meta": {
            "profile": [
                "https://www.ehealth.fgov.be/standards/fhir/StructureDefinition/be-observation-laboratory"
            ]
        },
        "text": {
            "status": "generated",
            "div": "<div xmlns=\"http://www.w3.org/1999/xhtml\"><p><b>code: </b>http://loinc.org 9465-6 Benzeen</p><p><b>subject: </b>Patient/7164976</p><p><b>effective: </b>2021-12-01T00:00:00+01:00</p><p><b>performer: </b>Practitioner/Responsible</p><p><b>result: </b>&lt;5,00 ug/L</p><p><b>specimen: </b>Specimen/012815333051</p><p><b>referenceRange: </b> // Bij blootstelling: &lt;5 g/L\r\n // </p></div>"
        },
        "status": "final",
        "code": {
            "coding": [
                {
                    "system": "http://loinc.org",
                    "code": "9465-6"
                }
            ],
            "text": "Benzeen"
        },
        "subject": {
            "reference": "Patient/7164976"
        },
        "effectiveDateTime": "2021-12-01T00:00:00+01:00",
        "issued": "2021-12-01T17:08:04+01:00",
        "performer": [
            {
                "reference": "Practitioner/Responsible"
            }
        ],
        "valueQuantity": {
            "value": 5.00,
            "comparator": "<",
            "unit": "ug/L",
            "system": "http://unitsofmeasure.org",
            "code": "ug/L"
        },
        "specimen": {
            "reference": "Specimen/012815333051"
        },
        "referenceRange": [
            {
                "text": "Bij blootstelling: <5 g/L\r\n"
            }
        ]
    }
}
,{
    "fullUrl": "Observation/Observation.9.0.0.2",
    "resource": {
        "resourceType": "Observation",
        "id": "Observation.9.0.0.2",
        "meta": {
            "profile": [
                "https://www.ehealth.fgov.be/standards/fhir/StructureDefinition/be-observation-laboratory"
            ]
        },
        "text": {
            "status": "generated",
            "div": "<div xmlns=\"http://www.w3.org/1999/xhtml\"><p><b>code: </b>http://www.macsys.be/hl7/testcode MED15551 Benzeen</p><p><b>subject: </b>Patient/7164976</p><p><b>effective: </b>2021-12-01T00:00:00+01:00</p><p><b>performer: </b>Practitioner/Responsible</p><p><b>result: </b>&lt;4,59 ug/g{Cre}</p><p><b>specimen: </b>Specimen/012815333051</p><p><b>referenceRange: </b> // Voor evaluatie van blootstelling aan benzeen is  muconzuur\r\nin urine een geschikte merker. // </p></div>"
        },
        "status": "final",
        "code": {
            "coding": [
                {
                    "system": "http://www.macsys.be/hl7/testcode",
                    "code": "MED15551"
                }
            ],
            "text": "Benzeen"
        },
        "subject": {
            "reference": "Patient/7164976"
        },
        "effectiveDateTime": "2021-12-01T00:00:00+01:00",
        "issued": "2021-12-01T17:08:04+01:00",
        "performer": [
            {
                "reference": "Practitioner/Responsible"
            }
        ],
        "valueQuantity": {
            "value": 4.59,
            "comparator": "<",
            "unit": "ug/g{Cre}",
            "system": "http://unitsofmeasure.org",
            "code": "ug/g{Cre}"
        },
        "specimen": {
            "reference": "Specimen/012815333051"
        },
        "referenceRange": [
            {
                "text": "Voor evaluatie van blootstelling aan benzeen is  muconzuur\r\nin urine een geschikte merker."
            }
        ]
    }
}
,{
    "fullUrl": "Observation/Observation.10.0.0.0",
    "resource": {
        "resourceType": "Observation",
        "id": "Observation.10.0.0.0",
        "meta": {
            "profile": [
                "https://www.ehealth.fgov.be/standards/fhir/StructureDefinition/be-observation-laboratory"
            ]
        },
        "text": {
            "status": "generated",
            "div": "<div xmlns=\"http://www.w3.org/1999/xhtml\"><p><b>code: </b>BIOCHEMIE URINE</p><p><b>subject: </b>Patient/7164976</p><p><b>effective: </b>2021-12-01T00:00:00+01:00</p><p><b>performer: </b>Practitioner/Responsible</p><p><b>member: </b> // Observation/Observation.10.0.0.1 // </p></div>"
        },
        "status": "final",
        "code": {
            "text": "BIOCHEMIE URINE"
        },
        "subject": {
            "reference": "Patient/7164976"
        },
        "effectiveDateTime": "2021-12-01T00:00:00+01:00",
        "performer": [
            {
                "reference": "Practitioner/Responsible"
            }
        ],
        "hasMember": [
            {
                "reference": "Observation/Observation.10.0.0.1"
            }
        ]
    }
}
,{
    "fullUrl": "Observation/Observation.10.0.0.1",
    "resource": {
        "resourceType": "Observation",
        "id": "Observation.10.0.0.1",
        "meta": {
            "profile": [
                "https://www.ehealth.fgov.be/standards/fhir/StructureDefinition/be-observation-laboratory"
            ]
        },
        "text": {
            "status": "generated",
            "div": "<div xmlns=\"http://www.w3.org/1999/xhtml\"><p><b>code: </b>http://loinc.org 2161-8 Creatinine</p><p><b>subject: </b>Patient/7164976</p><p><b>effective: </b>2021-12-01T00:00:00+01:00</p><p><b>performer: </b>Practitioner/Responsible</p><p><b>result: </b>1,09 g/L</p><p><b>specimen: </b>Specimen/012815333051</p><p><b>referenceRange: </b> // Low: 0,39 g/L // High: 2,59 g/L // </p></div>"
        },
        "status": "final",
        "code": {
            "coding": [
                {
                    "system": "http://loinc.org",
                    "code": "2161-8"
                }
            ],
            "text": "Creatinine"
        },
        "subject": {
            "reference": "Patient/7164976"
        },
        "effectiveDateTime": "2021-12-01T00:00:00+01:00",
        "issued": "2021-12-01T17:07:30+01:00",
        "performer": [
            {
                "reference": "Practitioner/Responsible"
            }
        ],
        "valueQuantity": {
            "value": 1.09,
            "unit": "g/L",
            "system": "http://unitsofmeasure.org",
            "code": "g/L"
        },
        "specimen": {
            "reference": "Specimen/012815333051"
        },
        "referenceRange": [
            {
                "low": {
                    "value": 0.39,
                    "unit": "g/L",
                    "system": "http://unitsofmeasure.org",
                    "code": "g/L"
                },
                "high": {
                    "value": 2.59,
                    "unit": "g/L",
                    "system": "http://unitsofmeasure.org",
                    "code": "g/L"
                }
            }
        ]
    }
}
,{
    "fullUrl": "Observation/Observation.11.0.0.0",
    "resource": {
        "resourceType": "Observation",
        "id": "Observation.11.0.0.0",
        "meta": {
            "profile": [
                "https://www.ehealth.fgov.be/standards/fhir/StructureDefinition/be-observation-laboratory"
            ]
        },
        "text": {
            "status": "generated",
            "div": "<div xmlns=\"http://www.w3.org/1999/xhtml\"><p><b>code: </b>DIVERSEN</p><p><b>subject: </b>Patient/7164976</p><p><b>effective: </b>2021-12-01T00:00:00+01:00</p><p><b>performer: </b>Practitioner/Responsible</p><p><b>member: </b> // Observation/Observation.11.1.0.0 // </p></div>"
        },
        "status": "final",
        "code": {
            "text": "DIVERSEN"
        },
        "subject": {
            "reference": "Patient/7164976"
        },
        "effectiveDateTime": "2021-12-01T00:00:00+01:00",
        "performer": [
            {
                "reference": "Practitioner/Responsible"
            }
        ],
        "hasMember": [
            {
                "reference": "Observation/Observation.11.1.0.0"
            }
        ]
    }
}
,{
    "fullUrl": "Observation/Observation.11.1.0.0",
    "resource": {
        "resourceType": "Observation",
        "id": "Observation.11.1.0.0",
        "meta": {
            "profile": [
                "https://www.ehealth.fgov.be/standards/fhir/StructureDefinition/be-observation-laboratory"
            ]
        },
        "text": {
            "status": "generated",
            "div": "<div xmlns=\"http://www.w3.org/1999/xhtml\"><p><b>code: </b>Lactaat inspanningstest</p><p><b>subject: </b>Patient/7164976</p><p><b>effective: </b>2021-12-01T00:00:00+01:00</p><p><b>performer: </b>Practitioner/Responsible</p><p><b>member: </b> // Observation/Observation.11.1.0.1 // Observation/Observation.11.1.0.2 // Observation/Observation.11.1.0.3 // Observation/Observation.11.1.0.4 // Observation/Observation.11.1.0.5 // Observation/Observation.11.1.0.6 // Observation/Observation.11.1.0.7 // Observation/Observation.11.1.0.8 // </p></div>"
        },
        "status": "final",
        "code": {
            "text": "Lactaat inspanningstest"
        },
        "subject": {
            "reference": "Patient/7164976"
        },
        "effectiveDateTime": "2021-12-01T00:00:00+01:00",
        "performer": [
            {
                "reference": "Practitioner/Responsible"
            }
        ],
        "hasMember": [
            {
                "reference": "Observation/Observation.11.1.0.1"
            },
            {
                "reference": "Observation/Observation.11.1.0.2"
            },
            {
                "reference": "Observation/Observation.11.1.0.3"
            },
            {
                "reference": "Observation/Observation.11.1.0.4"
            },
            {
                "reference": "Observation/Observation.11.1.0.5"
            },
            {
                "reference": "Observation/Observation.11.1.0.6"
            },
            {
                "reference": "Observation/Observation.11.1.0.7"
            },
            {
                "reference": "Observation/Observation.11.1.0.8"
            }
        ]
    }
}
,{
    "fullUrl": "Observation/Observation.11.1.0.1",
    "resource": {
        "resourceType": "Observation",
        "id": "Observation.11.1.0.1",
        "meta": {
            "profile": [
                "https://www.ehealth.fgov.be/standards/fhir/StructureDefinition/be-observation-laboratory"
            ]
        },
        "text": {
            "status": "generated",
            "div": "<div xmlns=\"http://www.w3.org/1999/xhtml\"><p><b>code: </b>http://loinc.org 25899-6 Lactaat staal 1</p><p><b>subject: </b>Patient/7164976</p><p><b>effective: </b>2021-12-01T00:00:00+01:00</p><p><b>performer: </b>Practitioner/Responsible</p><p><b>result: </b>1,31 mmol/L</p><p><b>specimen: </b>Specimen/003815333051</p></div>"
        },
        "status": "final",
        "code": {
            "coding": [
                {
                    "system": "http://loinc.org",
                    "code": "25899-6"
                }
            ],
            "text": "Lactaat staal 1"
        },
        "subject": {
            "reference": "Patient/7164976"
        },
        "effectiveDateTime": "2021-12-01T00:00:00+01:00",
        "issued": "2021-12-01T17:08:51+01:00",
        "performer": [
            {
                "reference": "Practitioner/Responsible"
            }
        ],
        "valueQuantity": {
            "value": 1.31,
            "unit": "mmol/L",
            "system": "http://unitsofmeasure.org",
            "code": "mmol/L"
        },
        "specimen": {
            "reference": "Specimen/003815333051"
        }
    }
}
,{
    "fullUrl": "Observation/Observation.11.1.0.2",
    "resource": {
        "resourceType": "Observation",
        "id": "Observation.11.1.0.2",
        "meta": {
            "profile": [
                "https://www.ehealth.fgov.be/standards/fhir/StructureDefinition/be-observation-laboratory"
            ]
        },
        "text": {
            "status": "generated",
            "div": "<div xmlns=\"http://www.w3.org/1999/xhtml\"><p><b>code: </b>http://loinc.org 25900-2 Lactaat staal 2</p><p><b>subject: </b>Patient/7164976</p><p><b>effective: </b>2021-12-01T00:00:00+01:00</p><p><b>performer: </b>Practitioner/Responsible</p><p><b>result: </b>1,60 mmol/L</p><p><b>specimen: </b>Specimen/004815333051</p></div>"
        },
        "status": "final",
        "code": {
            "coding": [
                {
                    "system": "http://loinc.org",
                    "code": "25900-2"
                }
            ],
            "text": "Lactaat staal 2"
        },
        "subject": {
            "reference": "Patient/7164976"
        },
        "effectiveDateTime": "2021-12-01T00:00:00+01:00",
        "issued": "2021-12-01T17:08:58+01:00",
        "performer": [
            {
                "reference": "Practitioner/Responsible"
            }
        ],
        "valueQuantity": {
            "value": 1.60,
            "unit": "mmol/L",
            "system": "http://unitsofmeasure.org",
            "code": "mmol/L"
        },
        "specimen": {
            "reference": "Specimen/004815333051"
        }
    }
}
,{
    "fullUrl": "Observation/Observation.11.1.0.3",
    "resource": {
        "resourceType": "Observation",
        "id": "Observation.11.1.0.3",
        "meta": {
            "profile": [
                "https://www.ehealth.fgov.be/standards/fhir/StructureDefinition/be-observation-laboratory"
            ]
        },
        "text": {
            "status": "generated",
            "div": "<div xmlns=\"http://www.w3.org/1999/xhtml\"><p><b>code: </b>http://loinc.org 25901-0 Lactaat staal 3</p><p><b>subject: </b>Patient/7164976</p><p><b>effective: </b>2021-12-01T00:00:00+01:00</p><p><b>performer: </b>Practitioner/Responsible</p><p><b>result: </b>1,61 mmol/L</p><p><b>specimen: </b>Specimen/005815333051</p></div>"
        },
        "status": "final",
        "code": {
            "coding": [
                {
                    "system": "http://loinc.org",
                    "code": "25901-0"
                }
            ],
            "text": "Lactaat staal 3"
        },
        "subject": {
            "reference": "Patient/7164976"
        },
        "effectiveDateTime": "2021-12-01T00:00:00+01:00",
        "issued": "2021-12-01T17:09:02+01:00",
        "performer": [
            {
                "reference": "Practitioner/Responsible"
            }
        ],
        "valueQuantity": {
            "value": 1.61,
            "unit": "mmol/L",
            "system": "http://unitsofmeasure.org",
            "code": "mmol/L"
        },
        "specimen": {
            "reference": "Specimen/005815333051"
        }
    }
}
,{
    "fullUrl": "Observation/Observation.11.1.0.4",
    "resource": {
        "resourceType": "Observation",
        "id": "Observation.11.1.0.4",
        "meta": {
            "profile": [
                "https://www.ehealth.fgov.be/standards/fhir/StructureDefinition/be-observation-laboratory"
            ]
        },
        "text": {
            "status": "generated",
            "div": "<div xmlns=\"http://www.w3.org/1999/xhtml\"><p><b>code: </b>http://loinc.org 25902-8 Lactaat staal 4</p><p><b>subject: </b>Patient/7164976</p><p><b>effective: </b>2021-12-01T00:00:00+01:00</p><p><b>performer: </b>Practitioner/Responsible</p><p><b>result: </b>1,92 mmol/L</p><p><b>specimen: </b>Specimen/006815333051</p></div>"
        },
        "status": "final",
        "code": {
            "coding": [
                {
                    "system": "http://loinc.org",
                    "code": "25902-8"
                }
            ],
            "text": "Lactaat staal 4"
        },
        "subject": {
            "reference": "Patient/7164976"
        },
        "effectiveDateTime": "2021-12-01T00:00:00+01:00",
        "issued": "2021-12-01T17:09:07+01:00",
        "performer": [
            {
                "reference": "Practitioner/Responsible"
            }
        ],
        "valueQuantity": {
            "value": 1.92,
            "unit": "mmol/L",
            "system": "http://unitsofmeasure.org",
            "code": "mmol/L"
        },
        "specimen": {
            "reference": "Specimen/006815333051"
        }
    }
}
,{
    "fullUrl": "Observation/Observation.11.1.0.5",
    "resource": {
        "resourceType": "Observation",
        "id": "Observation.11.1.0.5",
        "meta": {
            "profile": [
                "https://www.ehealth.fgov.be/standards/fhir/StructureDefinition/be-observation-laboratory"
            ]
        },
        "text": {
            "status": "generated",
            "div": "<div xmlns=\"http://www.w3.org/1999/xhtml\"><p><b>code: </b>http://loinc.org 25903-6 Lactaat staal 5</p><p><b>subject: </b>Patient/7164976</p><p><b>effective: </b>2021-12-01T00:00:00+01:00</p><p><b>performer: </b>Practitioner/Responsible</p><p><b>result: </b>1,93 mmol/L</p><p><b>specimen: </b>Specimen/007815333051</p></div>"
        },
        "status": "final",
        "code": {
            "coding": [
                {
                    "system": "http://loinc.org",
                    "code": "25903-6"
                }
            ],
            "text": "Lactaat staal 5"
        },
        "subject": {
            "reference": "Patient/7164976"
        },
        "effectiveDateTime": "2021-12-01T00:00:00+01:00",
        "issued": "2021-12-01T17:09:13+01:00",
        "performer": [
            {
                "reference": "Practitioner/Responsible"
            }
        ],
        "valueQuantity": {
            "value": 1.93,
            "unit": "mmol/L",
            "system": "http://unitsofmeasure.org",
            "code": "mmol/L"
        },
        "specimen": {
            "reference": "Specimen/007815333051"
        }
    }
}
,{
    "fullUrl": "Observation/Observation.11.1.0.6",
    "resource": {
        "resourceType": "Observation",
        "id": "Observation.11.1.0.6",
        "meta": {
            "profile": [
                "https://www.ehealth.fgov.be/standards/fhir/StructureDefinition/be-observation-laboratory"
            ]
        },
        "text": {
            "status": "generated",
            "div": "<div xmlns=\"http://www.w3.org/1999/xhtml\"><p><b>code: </b>http://loinc.org 25904-4 Lactaat staal 6</p><p><b>subject: </b>Patient/7164976</p><p><b>effective: </b>2021-12-01T00:00:00+01:00</p><p><b>performer: </b>Practitioner/Responsible</p><p><b>result: </b>5,91 mmol/L</p><p><b>specimen: </b>Specimen/008815333051</p></div>"
        },
        "status": "final",
        "code": {
            "coding": [
                {
                    "system": "http://loinc.org",
                    "code": "25904-4"
                }
            ],
            "text": "Lactaat staal 6"
        },
        "subject": {
            "reference": "Patient/7164976"
        },
        "effectiveDateTime": "2021-12-01T00:00:00+01:00",
        "issued": "2021-12-01T17:09:18+01:00",
        "performer": [
            {
                "reference": "Practitioner/Responsible"
            }
        ],
        "valueQuantity": {
            "value": 5.91,
            "unit": "mmol/L",
            "system": "http://unitsofmeasure.org",
            "code": "mmol/L"
        },
        "specimen": {
            "reference": "Specimen/008815333051"
        }
    }
}
,{
    "fullUrl": "Observation/Observation.11.1.0.7",
    "resource": {
        "resourceType": "Observation",
        "id": "Observation.11.1.0.7",
        "meta": {
            "profile": [
                "https://www.ehealth.fgov.be/standards/fhir/StructureDefinition/be-observation-laboratory"
            ]
        },
        "text": {
            "status": "generated",
            "div": "<div xmlns=\"http://www.w3.org/1999/xhtml\"><p><b>code: </b>http://www.macsys.be/hl7/testcode MED13337 Lactaat staal 7</p><p><b>subject: </b>Patient/7164976</p><p><b>effective: </b>2021-12-01T00:00:00+01:00</p><p><b>performer: </b>Practitioner/Responsible</p><p><b>result: </b>8,89 mmol/L</p><p><b>specimen: </b>Specimen/009815333051</p></div>"
        },
        "status": "final",
        "code": {
            "coding": [
                {
                    "system": "http://www.macsys.be/hl7/testcode",
                    "code": "MED13337"
                }
            ],
            "text": "Lactaat staal 7"
        },
        "subject": {
            "reference": "Patient/7164976"
        },
        "effectiveDateTime": "2021-12-01T00:00:00+01:00",
        "issued": "2021-12-01T17:09:23+01:00",
        "performer": [
            {
                "reference": "Practitioner/Responsible"
            }
        ],
        "valueQuantity": {
            "value": 8.89,
            "unit": "mmol/L",
            "system": "http://unitsofmeasure.org",
            "code": "mmol/L"
        },
        "specimen": {
            "reference": "Specimen/009815333051"
        }
    }
}
,{
    "fullUrl": "Observation/Observation.11.1.0.8",
    "resource": {
        "resourceType": "Observation",
        "id": "Observation.11.1.0.8",
        "meta": {
            "profile": [
                "https://www.ehealth.fgov.be/standards/fhir/StructureDefinition/be-observation-laboratory"
            ]
        },
        "text": {
            "status": "generated",
            "div": "<div xmlns=\"http://www.w3.org/1999/xhtml\"><p><b>code: </b>http://www.macsys.be/hl7/testcode MED13338 Lactaat staal 8</p><p><b>subject: </b>Patient/7164976</p><p><b>effective: </b>2021-12-01T00:00:00+01:00</p><p><b>performer: </b>Practitioner/Responsible</p><p><b>result: </b>11,56 mmol/L</p><p><b>specimen: </b>Specimen/010815333051</p></div>"
        },
        "status": "final",
        "code": {
            "coding": [
                {
                    "system": "http://www.macsys.be/hl7/testcode",
                    "code": "MED13338"
                }
            ],
            "text": "Lactaat staal 8"
        },
        "subject": {
            "reference": "Patient/7164976"
        },
        "effectiveDateTime": "2021-12-01T00:00:00+01:00",
        "issued": "2021-12-01T17:09:27+01:00",
        "performer": [
            {
                "reference": "Practitioner/Responsible"
            }
        ],
        "valueQuantity": {
            "value": 11.56,
            "unit": "mmol/L",
            "system": "http://unitsofmeasure.org",
            "code": "mmol/L"
        },
        "specimen": {
            "reference": "Specimen/010815333051"
        }
    }
}
,{
    "fullUrl": "DiagnosticReport/815333051",
    "resource": {
        "resourceType": "DiagnosticReport",
        "id": "815333051",
        "meta": {
            "versionId": "8",
            "profile": [
                "https://www.ehealth.fgov.be/standards/fhir/lab/StructureDefinition/be-laboratory-report"
            ]
        },
        "language": "nl",
        "text": {
            "status": "generated",
            "div": "<div xmlns=\"http://www.w3.org/1999/xhtml\" xml:lang=\"nl\" lang=\"nl\"><p><b>id: </b>815333051</p><p><b>basedOn: </b>ServiceRequest/815333051</p><p><b>status: </b>final</p><p><b>category: </b>http://terminology.hl7.org/CodeSystem/v2-0074 LAB Laboratory</p><p><b>code: </b>http://loinc.org 11502-2 Laboratory report</p><p><b>subject: </b>Patient/7164976</p><p><b>effective: </b>2021-12-01T00:00:00+01:00</p><p><b>issued: </b>2021-12-21T10:12:24+01:00</p><p><b>performer: </b>Organization/81365677998</p><p><b>resultsInterpreter: </b>Practitioner/Responsible</p><p><b>specimen: </b> // Specimen/001815333051 // Specimen/002815333051 // Specimen/003815333051 // Specimen/004815333051 // Specimen/005815333051 // Specimen/006815333051 // Specimen/007815333051 // Specimen/008815333051 // Specimen/009815333051 // Specimen/010815333051 // Specimen/011815333051 // Specimen/012815333051 // Specimen/013815333051 // </p><p><b>result: </b> // Observation/Observation.1.0.0.0 // Observation/Observation.2.0.0.0 // Observation/Observation.3.0.0.0 // Observation/Observation.4.0.0.0 // Observation/Observation.5.0.0.0 // Observation/Observation.6.0.0.0 // Observation/Observation.7.0.0.0 // Observation/Observation.8.0.0.0 // Observation/Observation.9.0.0.0 // Observation/Observation.10.0.0.0 // Observation/Observation.11.0.0.0 // </p></div>"
        },
        "identifier": [
            {
                "system": "https://www.ehealth.fgov.be/lab-report/diagnostic-report-id",
                "value": "81365677998.815333051"
            }
        ],
        "basedOn": [
            {
                "reference": "ServiceRequest/815333051"
            }
        ],
        "status": "final",
        "category": [
            {
                "coding": [
                    {
                        "system": "http://terminology.hl7.org/CodeSystem/v2-0074",
                        "code": "LAB",
                        "display": "Laboratory"
                    }
                ]
            }
        ],
        "code": {
            "coding": [
                {
                    "system": "http://loinc.org",
                    "code": "11502-2",
                    "display": "Laboratory report"
                }
            ]
        },
        "subject": {
            "reference": "Patient/7164976"
        },
        "effectiveDateTime": "2021-12-01T00:00:00+01:00",
        "issued": "2021-12-21T10:12:24+01:00",
        "performer": [
            {
                "reference": "Organization/81365677998"
            }
        ],
        "resultsInterpreter": [
            {
                "reference": "Practitioner/Responsible"
            }
        ],
        "specimen": [
            {
                "reference": "Specimen/001815333051"
            },
            {
                "reference": "Specimen/002815333051"
            },
            {
                "reference": "Specimen/003815333051"
            },
            {
                "reference": "Specimen/004815333051"
            },
            {
                "reference": "Specimen/005815333051"
            },
            {
                "reference": "Specimen/006815333051"
            },
            {
                "reference": "Specimen/007815333051"
            },
            {
                "reference": "Specimen/008815333051"
            },
            {
                "reference": "Specimen/009815333051"
            },
            {
                "reference": "Specimen/010815333051"
            },
            {
                "reference": "Specimen/011815333051"
            },
            {
                "reference": "Specimen/012815333051"
            },
            {
                "reference": "Specimen/013815333051"
            }
        ],
        "result": [
            {
                "reference": "Observation/Observation.1.0.0.0"
            },
            {
                "reference": "Observation/Observation.2.0.0.0"
            },
            {
                "reference": "Observation/Observation.3.0.0.0"
            },
            {
                "reference": "Observation/Observation.4.0.0.0"
            },
            {
                "reference": "Observation/Observation.5.0.0.0"
            },
            {
                "reference": "Observation/Observation.6.0.0.0"
            },
            {
                "reference": "Observation/Observation.7.0.0.0"
            },
            {
                "reference": "Observation/Observation.8.0.0.0"
            },
            {
                "reference": "Observation/Observation.9.0.0.0"
            },
            {
                "reference": "Observation/Observation.10.0.0.0"
            },
            {
                "reference": "Observation/Observation.11.0.0.0"
            }
        ],
        "presentedForm": [
            {
                "contentType": "application/pdf",
                "data": "",
                "title": "PDF protocol"
            }
        ]
    }
}
,{
    "fullUrl": "Organization/81365677998",
    "resource": {
        "resourceType": "Organization",
        "id": "81365677998",
        "meta": {
            "profile": [
                "https://www.ehealth.fgov.be/standards/fhir/core/StructureDefinition/be-organization"
            ]
        },
        "text": {
            "status": "generated",
            "div": "<div xmlns=\"http://www.w3.org/1999/xhtml\"><p><b>identifier: </b>81365677998</p><p><b>name: </b>CENTRUM VOOR MEDISCHE ANALYSE</p><p><b>contact: </b>014/28.50.00</p><p><b>address: </b>Oud-Strijderslaan 199 2200 Herentals BE</p></div>"
        },
        "identifier": [
            {
                "use": "official",
                "type": {
                    "coding": [
                        {
                            "system": "http://terminology.hl7.org/CodeSystem/v2-0203",
                            "code": "MD",
                            "display": "Medical License number"
                        }
                    ]
                },
                "system": "https://www.ehealth.fgov.be/standards/fhir/NamingSystem/nihdi",
                "value": "81365677998"
            },
            {
                "use": "official",
                "system": "https://economie.fgov.be/belac",
                "value": "007-MED"
            }
        ],
        "active": true,
        "type": [
            {
                "coding": [
                    {
                        "system": "https://www.ehealth.fgov.be/standards/fhir/CodeSystem/cd-hcparty",
                        "code": "orglaboratory"
                    }
                ]
            }
        ],
        "name": "CENTRUM VOOR MEDISCHE ANALYSE",
        "telecom": [
            {
                "system": "phone",
                "value": "014/28.50.00",
                "use": "work"
            },
            {
                "system": "fax",
                "value": "014/22.56.08",
                "use": "work"
            },
            {
                "system": "email",
                "value": "info@cma.be",
                "use": "work"
            },
            {
                "system": "url",
                "value": "http://www.cma.be",
                "use": "work"
            }
        ],
        "address": [
            {
                "use": "work",
                "type": "both",
                "line": [
                    "Oud-Strijderslaan 199"
                ],
                "city": "Herentals",
                "postalCode": "2200",
                "country": "BE"
            }
        ]
    }
}
,{
    "fullUrl": "Practitioner/69",
    "resource": {
        "resourceType": "Practitioner",
        "id": "69",
        "meta": {
            "profile": [
                "https://www.ehealth.fgov.be/standards/fhir/core/StructureDefinition/be-practitioner"
            ]
        },
        "text": {
            "status": "generated",
            "div": "<div xmlns=\"http://www.w3.org/1999/xhtml\"><p><b>identifier: </b>10000007999</p><p><b>name: </b>Cma - Herentals Fhir</p><p><b>contact: </b>info@cma.be</p><p><b>address: </b>Oud-Strijderslaan 199 2200 Herentals BE</p></div>"
        },
        "identifier": [
            {
                "use": "official",
                "system": "https://www.ehealth.fgov.be/standards/fhir/NamingSystem/nihdi",
                "value": "10000007999"
            }
        ],
        "name": [
            {
                "use": "official",
                "family": "Cma - Herentals",
                "given": [
                    "Fhir"
                ],
                "prefix": [
                    "Dr."
                ]
            }
        ],
        "telecom": [
            {
                "system": "email",
                "value": "info@cma.be",
                "use": "work"
            },
            {
                "system": "fax",
                "value": "(+32)14/225608",
                "use": "work"
            },
            {
                "system": "phone",
                "value": "(+32)14/285000",
                "use": "work"
            }
        ],
        "address": [
            {
                "use": "work",
                "type": "both",
                "line": [
                    "Oud-Strijderslaan 199"
                ],
                "city": "Herentals",
                "postalCode": "2200",
                "country": "BE"
            }
        ],
        "gender": "unknown"
    }
}
,{
    "fullUrl": "Practitioner/Responsible",
    "resource": {
        "resourceType": "Practitioner",
        "id": "Responsible",
        "meta": {
            "profile": [
                "https://www.ehealth.fgov.be/standards/fhir/core/StructureDefinition/be-practitioner"
            ]
        },
        "text": {
            "status": "generated",
            "div": "<div xmlns=\"http://www.w3.org/1999/xhtml\"><p><b>identifier: </b>68071432800</p><p><b>name: </b>Engelen Frans</p><p><b>contact: </b>014/28.50.00</p><p><b>address: </b>Oud-Strijderslaan 199 2200 Herentals BE</p></div>"
        },
        "identifier": [
            {
                "use": "official",
                "system": "https://www.ehealth.fgov.be/standards/fhir/NamingSystem/nihdi",
                "value": "68071432800"
            }
        ],
        "name": [
            {
                "use": "official",
                "family": "Engelen",
                "given": [
                    "Frans"
                ]
            }
        ],
        "telecom": [
            {
                "system": "phone",
                "value": "014/28.50.00",
                "use": "work"
            }
        ],
        "address": [
            {
                "use": "work",
                "type": "both",
                "line": [
                    "Oud-Strijderslaan 199"
                ],
                "city": "Herentals",
                "postalCode": "2200",
                "country": "BE"
            }
        ],
        "gender": "unknown"
    }
}
,{
    "fullUrl": "Patient/7164976",
    "resource": {
        "resourceType": "Patient",
        "id": "7164976",
        "meta": {
            "profile": [
                "https://www.ehealth.fgov.be/standards/fhir/core/StructureDefinition/be-patient"
            ]
        },
        "text": {
            "status": "generated",
            "div": "<div xmlns=\"http://www.w3.org/1999/xhtml\"><p><b>identifier: </b>90010199794</p><p><b>name: </b>Lastname Firstname Male</p><p><b>gender: </b>male</p><p><b>birthDate: </b>1990-01-01</p><p><b>address: </b>Oud-Strijderslaan 199 2200 Herentals BE</p></div>"
        },
        "identifier": [
            {
                "use": "official",
                "system": "https://www.ehealth.fgov.be/standards/fhir/NamingSystem/ssin",
                "value": "90010199794"
            }
        ],
        "active": true,
        "name": [
            {
                "use": "official",
                "family": "Lastname",
                "given": [
                    "Firstname Male"
                ]
            }
        ],
        "address": [
            {
                "use": "home",
                "type": "both",
                "line": [
                    "Oud-Strijderslaan 199"
                ],
                "city": "Herentals",
                "postalCode": "2200",
                "country": "BE"
            }
        ],
        "gender": "male",
        "birthDate": "1990-01-01"
    }
}
,{
    "fullUrl": "ServiceRequest/815333051",
    "resource": {
        "resourceType": "ServiceRequest",
        "id": "815333051",
        "text": {
            "status": "generated",
            "div": "<div xmlns=\"http://www.w3.org/1999/xhtml\"><p><b>id: </b>815333051</p><p><b>intent: </b>order</p><p><b>status: </b>completed</p><p><b>category: </b>http://snomed.info/sct 108252007 Laboratory procedure</p><p><b>subject: </b>Patient/7164976</p><p><b>requester: </b>Practitioner/69</p><p><b>authoredOn: </b>2021-12-01T17:00:00+01:00</p></div>"
        },
        "identifier": [
            {
                "system": "http://www.macsys.be/hl7/ServiceRequest",
                "value": "815333051"
            }
        ],
        "status": "completed",
        "intent": "order",
        "category": [
            {
                "coding": [
                    {
                        "system": "http://snomed.info/sct",
                        "code": "108252007",
                        "display": "Laboratory procedure"
                    }
                ]
            }
        ],
        "subject": {
            "reference": "Patient/7164976"
        },
        "priority": "routine",
        "authoredOn": "2021-12-01T17:00:00+01:00",
        "requester": {
            "reference": "Practitioner/69"
        }
    }
}
]}