{"resourceType":"Bundle","type":"document","timestamp":"2021-12-08T13:59:57Z","identifier":{"system":"https://www.ehealth.fgov.be/lab-report/bundle-id","value":"81365677998.815333051.10"},"entry":[{"fullUrl":"Composition/815333051","resource":{"resourceType":"Composition","id":"815333051","meta":{"profile":["https://www.ehealth.fgov.be/standards/fhir/StructureDefinition/be-laboratory-report-composition"]},"text":{"status":"generated","div":"<div xmlns=\"http://www.w3.org/1999/xhtml\"><p><b>id: </b>815333051</p><p><b>status: </b>preliminary</p><p><b>type: </b>http://loinc.org 11502-2 Laboratory report</p><p><b>date: </b>2021-12-08T13:59:57+01:00</p><p><b>author: </b>Practitioner/Responsible</p><p><b>title: </b>Laboratory Report</p></div>"},"identifier":{"system":"http://www.macsys.be/hl7/Composition","value":"815333051"},"status":"preliminary","type":{"coding":[{"system":"http://loinc.org","code":"11502-2"}],"text":"Laboratory report"},"subject":{"reference":"Patient/6388178"},"date":"2021-12-08T13:59:57+01:00","author":[{"reference":"Practitioner/Responsible"}],"title":"Laboratory Report","section":[{"entry":[{"reference":"DiagnosticReport/815333051"}]}]}},{"fullUrl":"Specimen/001815333051","resource":{"resourceType":"Specimen","id":"001815333051","meta":{"profile":["https://www.ehealth.fgov.be/standards/fhir/StructureDefinition/be-specimen-laboratory"]},"text":{"status":"generated","div":"<div xmlns=\"http://www.w3.org/1999/xhtml\"><p><b>id: </b>001815333051</p><p><b>status: </b>available</p><p><b>type: </b>http://terminology.hl7.org/CodeSystem/v2-0487 BLDV Blood venous Fluoride nuchter</p><p><b>receivedTime: </b>2021-12-07T09:26:11+01:00</p><p><b>collector: </b>Practitioner/8152</p></div>"},"identifier":[{"system":"http://www.macsys.be/hl7/Specimen","value":"001815333051"}],"status":"available","type":{"coding":[{"system":"http://terminology.hl7.org/CodeSystem/v2-0487","code":"BLDV","display":"Blood venous"}],"text":"Fluoride nuchter"},"subject":{"reference":"Patient/6388178"},"receivedTime":"2021-12-07T09:26:11+01:00","collection":{"collectedDateTime":"2021-12-07T00:00:00+01:00","collector":{"reference":"Practitioner/8152"}}}},{"fullUrl":"Specimen/002815333051","resource":{"resourceType":"Specimen","id":"002815333051","meta":{"profile":["https://www.ehealth.fgov.be/standards/fhir/StructureDefinition/be-specimen-laboratory"]},"text":{"status":"generated","div":"<div xmlns=\"http://www.w3.org/1999/xhtml\"><p><b>id: </b>002815333051</p><p><b>status: </b>available</p><p><b>type: </b>http://terminology.hl7.org/CodeSystem/v2-0487 SER Serum Serum ochtend/serum nuchter</p><p><b>receivedTime: </b>2021-12-07T09:26:11+01:00</p><p><b>collector: </b>Practitioner/8152</p></div>"},"identifier":[{"system":"http://www.macsys.be/hl7/Specimen","value":"002815333051"}],"status":"available","type":{"coding":[{"system":"http://terminology.hl7.org/CodeSystem/v2-0487","code":"SER","display":"Serum"}],"text":"Serum ochtend/serum nuchter"},"subject":{"reference":"Patient/6388178"},"receivedTime":"2021-12-07T09:26:11+01:00","collection":{"collectedDateTime":"2021-12-07T00:00:00+01:00","collector":{"reference":"Practitioner/8152"}}}},{"fullUrl":"Specimen/004815333051","resource":{"resourceType":"Specimen","id":"004815333051","meta":{"profile":["https://www.ehealth.fgov.be/standards/fhir/StructureDefinition/be-specimen-laboratory"]},"text":{"status":"generated","div":"<div xmlns=\"http://www.w3.org/1999/xhtml\"><p><b>id: </b>004815333051</p><p><b>status: </b>available</p><p><b>type: </b>http://terminology.hl7.org/CodeSystem/v2-0487 BLDV Blood venous Lactaatcurve 1</p><p><b>receivedTime: </b>2021-12-07T09:26:11+01:00</p><p><b>collector: </b>Practitioner/8152</p></div>"},"identifier":[{"system":"http://www.macsys.be/hl7/Specimen","value":"004815333051"}],"status":"available","type":{"coding":[{"system":"http://terminology.hl7.org/CodeSystem/v2-0487","code":"BLDV","display":"Blood venous"}],"text":"Lactaatcurve 1"},"subject":{"reference":"Patient/6388178"},"receivedTime":"2021-12-07T09:26:11+01:00","collection":{"collectedDateTime":"2021-12-07T00:00:00+01:00","collector":{"reference":"Practitioner/8152"}}}},{"fullUrl":"Specimen/005815333051","resource":{"resourceType":"Specimen","id":"005815333051","meta":{"profile":["https://www.ehealth.fgov.be/standards/fhir/StructureDefinition/be-specimen-laboratory"]},"text":{"status":"generated","div":"<div xmlns=\"http://www.w3.org/1999/xhtml\"><p><b>id: </b>005815333051</p><p><b>status: </b>available</p><p><b>type: </b>http://terminology.hl7.org/CodeSystem/v2-0487 BLDV Blood venous Lactaatcurve 2</p><p><b>receivedTime: </b>2021-12-07T09:26:11+01:00</p><p><b>collector: </b>Practitioner/8152</p></div>"},"identifier":[{"system":"http://www.macsys.be/hl7/Specimen","value":"005815333051"}],"status":"available","type":{"coding":[{"system":"http://terminology.hl7.org/CodeSystem/v2-0487","code":"BLDV","display":"Blood venous"}],"text":"Lactaatcurve 2"},"subject":{"reference":"Patient/6388178"},"receivedTime":"2021-12-07T09:26:11+01:00","collection":{"collectedDateTime":"2021-12-07T00:00:00+01:00","collector":{"reference":"Practitioner/8152"}}}},{"fullUrl":"Specimen/006815333051","resource":{"resourceType":"Specimen","id":"006815333051","meta":{"profile":["https://www.ehealth.fgov.be/standards/fhir/StructureDefinition/be-specimen-laboratory"]},"text":{"status":"generated","div":"<div xmlns=\"http://www.w3.org/1999/xhtml\"><p><b>id: </b>006815333051</p><p><b>status: </b>available</p><p><b>type: </b>http://terminology.hl7.org/CodeSystem/v2-0487 BLDV Blood venous Lactaatcurve 3</p><p><b>receivedTime: </b>2021-12-07T09:26:11+01:00</p><p><b>collector: </b>Practitioner/8152</p></div>"},"identifier":[{"system":"http://www.macsys.be/hl7/Specimen","value":"006815333051"}],"status":"available","type":{"coding":[{"system":"http://terminology.hl7.org/CodeSystem/v2-0487","code":"BLDV","display":"Blood venous"}],"text":"Lactaatcurve 3"},"subject":{"reference":"Patient/6388178"},"receivedTime":"2021-12-07T09:26:11+01:00","collection":{"collectedDateTime":"2021-12-07T00:00:00+01:00","collector":{"reference":"Practitioner/8152"}}}},{"fullUrl":"Specimen/007815333051","resource":{"resourceType":"Specimen","id":"007815333051","meta":{"profile":["https://www.ehealth.fgov.be/standards/fhir/StructureDefinition/be-specimen-laboratory"]},"text":{"status":"generated","div":"<div xmlns=\"http://www.w3.org/1999/xhtml\"><p><b>id: </b>007815333051</p><p><b>status: </b>available</p><p><b>type: </b>http://terminology.hl7.org/CodeSystem/v2-0487 BLDV Blood venous Lactaatcurve 4</p><p><b>receivedTime: </b>2021-12-07T09:26:11+01:00</p><p><b>collector: </b>Practitioner/8152</p></div>"},"identifier":[{"system":"http://www.macsys.be/hl7/Specimen","value":"007815333051"}],"status":"available","type":{"coding":[{"system":"http://terminology.hl7.org/CodeSystem/v2-0487","code":"BLDV","display":"Blood venous"}],"text":"Lactaatcurve 4"},"subject":{"reference":"Patient/6388178"},"receivedTime":"2021-12-07T09:26:11+01:00","collection":{"collectedDateTime":"2021-12-07T00:00:00+01:00","collector":{"reference":"Practitioner/8152"}}}},{"fullUrl":"Specimen/008815333051","resource":{"resourceType":"Specimen","id":"008815333051","meta":{"profile":["https://www.ehealth.fgov.be/standards/fhir/StructureDefinition/be-specimen-laboratory"]},"text":{"status":"generated","div":"<div xmlns=\"http://www.w3.org/1999/xhtml\"><p><b>id: </b>008815333051</p><p><b>status: </b>available</p><p><b>type: </b>http://terminology.hl7.org/CodeSystem/v2-0487 BLDV Blood venous Lactaatcurve 5</p><p><b>receivedTime: </b>2021-12-07T09:26:11+01:00</p><p><b>collector: </b>Practitioner/8152</p></div>"},"identifier":[{"system":"http://www.macsys.be/hl7/Specimen","value":"008815333051"}],"status":"available","type":{"coding":[{"system":"http://terminology.hl7.org/CodeSystem/v2-0487","code":"BLDV","display":"Blood venous"}],"text":"Lactaatcurve 5"},"subject":{"reference":"Patient/6388178"},"receivedTime":"2021-12-07T09:26:11+01:00","collection":{"collectedDateTime":"2021-12-07T00:00:00+01:00","collector":{"reference":"Practitioner/8152"}}}},{"fullUrl":"Specimen/009815333051","resource":{"resourceType":"Specimen","id":"009815333051","meta":{"profile":["https://www.ehealth.fgov.be/standards/fhir/StructureDefinition/be-specimen-laboratory"]},"text":{"status":"generated","div":"<div xmlns=\"http://www.w3.org/1999/xhtml\"><p><b>id: </b>009815333051</p><p><b>status: </b>available</p><p><b>type: </b>http://terminology.hl7.org/CodeSystem/v2-0487 BLDV Blood venous Lactaatcurve 6</p><p><b>receivedTime: </b>2021-12-07T09:26:11+01:00</p><p><b>collector: </b>Practitioner/8152</p></div>"},"identifier":[{"system":"http://www.macsys.be/hl7/Specimen","value":"009815333051"}],"status":"available","type":{"coding":[{"system":"http://terminology.hl7.org/CodeSystem/v2-0487","code":"BLDV","display":"Blood venous"}],"text":"Lactaatcurve 6"},"subject":{"reference":"Patient/6388178"},"receivedTime":"2021-12-07T09:26:11+01:00","collection":{"collectedDateTime":"2021-12-07T00:00:00+01:00","collector":{"reference":"Practitioner/8152"}}}},{"fullUrl":"Specimen/010815333051","resource":{"resourceType":"Specimen","id":"010815333051","meta":{"profile":["https://www.ehealth.fgov.be/standards/fhir/StructureDefinition/be-specimen-laboratory"]},"text":{"status":"generated","div":"<div xmlns=\"http://www.w3.org/1999/xhtml\"><p><b>id: </b>010815333051</p><p><b>status: </b>available</p><p><b>type: </b>http://terminology.hl7.org/CodeSystem/v2-0487 BLDV Blood venous Lactaatcurve 7</p><p><b>receivedTime: </b>2021-12-07T09:26:11+01:00</p><p><b>collector: </b>Practitioner/8152</p></div>"},"identifier":[{"system":"http://www.macsys.be/hl7/Specimen","value":"010815333051"}],"status":"available","type":{"coding":[{"system":"http://terminology.hl7.org/CodeSystem/v2-0487","code":"BLDV","display":"Blood venous"}],"text":"Lactaatcurve 7"},"subject":{"reference":"Patient/6388178"},"receivedTime":"2021-12-07T09:26:11+01:00","collection":{"collectedDateTime":"2021-12-07T00:00:00+01:00","collector":{"reference":"Practitioner/8152"}}}},{"fullUrl":"Specimen/011815333051","resource":{"resourceType":"Specimen","id":"011815333051","meta":{"profile":["https://www.ehealth.fgov.be/standards/fhir/StructureDefinition/be-specimen-laboratory"]},"text":{"status":"generated","div":"<div xmlns=\"http://www.w3.org/1999/xhtml\"><p><b>id: </b>011815333051</p><p><b>status: </b>available</p><p><b>type: </b>http://terminology.hl7.org/CodeSystem/v2-0487 BLDV Blood venous Lactaatcurve 8</p><p><b>receivedTime: </b>2021-12-07T09:26:11+01:00</p><p><b>collector: </b>Practitioner/8152</p></div>"},"identifier":[{"system":"http://www.macsys.be/hl7/Specimen","value":"011815333051"}],"status":"available","type":{"coding":[{"system":"http://terminology.hl7.org/CodeSystem/v2-0487","code":"BLDV","display":"Blood venous"}],"text":"Lactaatcurve 8"},"subject":{"reference":"Patient/6388178"},"receivedTime":"2021-12-07T09:26:11+01:00","collection":{"collectedDateTime":"2021-12-07T00:00:00+01:00","collector":{"reference":"Practitioner/8152"}}}},{"fullUrl":"Specimen/012815333051","resource":{"resourceType":"Specimen","id":"012815333051","meta":{"profile":["https://www.ehealth.fgov.be/standards/fhir/StructureDefinition/be-specimen-laboratory"]},"text":{"status":"generated","div":"<div xmlns=\"http://www.w3.org/1999/xhtml\"><p><b>id: </b>012815333051</p><p><b>status: </b>available</p><p><b>type: </b>http://terminology.hl7.org/CodeSystem/v2-0487 SER Serum Serum prolactine</p><p><b>receivedTime: </b>2021-12-07T09:26:11+01:00</p><p><b>collector: </b>Practitioner/8152</p></div>"},"identifier":[{"system":"http://www.macsys.be/hl7/Specimen","value":"012815333051"}],"status":"available","type":{"coding":[{"system":"http://terminology.hl7.org/CodeSystem/v2-0487","code":"SER","display":"Serum"}],"text":"Serum prolactine"},"subject":{"reference":"Patient/6388178"},"receivedTime":"2021-12-07T09:26:11+01:00","collection":{"collectedDateTime":"2021-12-07T00:00:00+01:00","collector":{"reference":"Practitioner/8152"}}}},{"fullUrl":"Specimen/003815333051","resource":{"resourceType":"Specimen","id":"003815333051","meta":{"profile":["https://www.ehealth.fgov.be/standards/fhir/StructureDefinition/be-specimen-laboratory"]},"text":{"status":"generated","div":"<div xmlns=\"http://www.w3.org/1999/xhtml\"><p><b>id: </b>003815333051</p><p><b>status: </b>available</p><p><b>type: </b>http://terminology.hl7.org/CodeSystem/v2-0487 UR Urine Urine</p><p><b>receivedTime: </b>2021-12-07T09:26:11+01:00</p><p><b>collector: </b>Practitioner/8152</p></div>"},"identifier":[{"system":"http://www.macsys.be/hl7/Specimen","value":"003815333051"}],"status":"available","type":{"coding":[{"system":"http://terminology.hl7.org/CodeSystem/v2-0487","code":"UR","display":"Urine"}],"text":"Urine"},"subject":{"reference":"Patient/6388178"},"receivedTime":"2021-12-07T09:26:11+01:00","collection":{"collectedDateTime":"2021-12-07T00:00:00+01:00","collector":{"reference":"Practitioner/8152"}}}},{"fullUrl":"Observation/Observation.1.0.0.0","resource":{"resourceType":"Observation","id":"Observation.1.0.0.0","meta":{"profile":["https://www.ehealth.fgov.be/standards/fhir/StructureDefinition/be-observation-laboratory"]},"text":{"status":"generated","div":"<div xmlns=\"http://www.w3.org/1999/xhtml\"><p><b>code: </b>HEMATOLOGIE</p><p><b>subject: </b>Patient/6388178</p><p><b>effective: </b>2021-12-07T00:00:00+01:00</p><p><b>performer: </b>Practitioner/Responsible</p><p><b>member: </b> // Observation/Observation.1.0.0.1 // Observation/Observation.1.0.0.2 // Observation/Observation.1.0.0.3 // </p></div>"},"status":"final","code":{"text":"HEMATOLOGIE"},"subject":{"reference":"Patient/6388178"},"effectiveDateTime":"2021-12-07T00:00:00+01:00","performer":[{"reference":"Practitioner/Responsible"}],"hasMember":[{"reference":"Observation/Observation.1.0.0.1"},{"reference":"Observation/Observation.1.0.0.2"},{"reference":"Observation/Observation.1.0.0.3"}]}},{"fullUrl":"Observation/Observation.1.0.0.1","resource":{"resourceType":"Observation","id":"Observation.1.0.0.1","meta":{"profile":["https://www.ehealth.fgov.be/standards/fhir/StructureDefinition/be-observation-laboratory"]},"text":{"status":"generated","div":"<div xmlns=\"http://www.w3.org/1999/xhtml\"><p><b>code: </b>http://loinc.org 2498-4 IJzer</p><p><b>subject: </b>Patient/6388178</p><p><b>effective: </b>2021-12-07T00:00:00+01:00</p><p><b>performer: </b>Practitioner/Responsible</p><p><b>result: </b>85 ug/dL</p><p><b>specimen: </b>Specimen/002815333051</p><p><b>note: </b>Analyse gedekt door accreditatie.</p><p><b>referenceRange: </b> // Low: 65 ug/dL // High: 175 ug/dL // </p></div>"},"status":"final","code":{"coding":[{"system":"http://loinc.org","code":"2498-4"}],"text":"IJzer"},"subject":{"reference":"Patient/6388178"},"effectiveDateTime":"2021-12-07T00:00:00+01:00","issued":"2021-12-07T09:26:25+01:00","performer":[{"reference":"Practitioner/Responsible"}],"valueQuantity":{"value":85,"unit":"ug/dL","system":"http://unitsofmeasure.org","code":"ug/dL"},"note":[{"text":"Analyse gedekt door accreditatie."}],"specimen":{"reference":"Specimen/002815333051"},"referenceRange":[{"low":{"value":65,"unit":"ug/dL","system":"http://unitsofmeasure.org","code":"ug/dL"},"high":{"value":175,"unit":"ug/dL","system":"http://unitsofmeasure.org","code":"ug/dL"}}]}},{"fullUrl":"Observation/Observation.1.0.0.2","resource":{"resourceType":"Observation","id":"Observation.1.0.0.2","meta":{"profile":["https://www.ehealth.fgov.be/standards/fhir/StructureDefinition/be-observation-laboratory"]},"text":{"status":"generated","div":"<div xmlns=\"http://www.w3.org/1999/xhtml\"><p><b>code: </b>http://loinc.org 3034-6 Transferrine</p><p><b>subject: </b>Patient/6388178</p><p><b>effective: </b>2021-12-07T00:00:00+01:00</p><p><b>performer: </b>Practitioner/Responsible</p><p><b>result: </b>2,04 g/L</p><p><b>specimen: </b>Specimen/002815333051</p><p><b>note: </b>Analyse gedekt door accreditatie.</p><p><b>referenceRange: </b> // Low: 2,00 g/L // High: 3,60 g/L // </p></div>"},"status":"final","code":{"coding":[{"system":"http://loinc.org","code":"3034-6"}],"text":"Transferrine"},"subject":{"reference":"Patient/6388178"},"effectiveDateTime":"2021-12-07T00:00:00+01:00","issued":"2021-12-07T09:26:28+01:00","performer":[{"reference":"Practitioner/Responsible"}],"valueQuantity":{"value":2.04,"unit":"g/L","system":"http://unitsofmeasure.org","code":"g/L"},"note":[{"text":"Analyse gedekt door accreditatie."}],"specimen":{"reference":"Specimen/002815333051"},"referenceRange":[{"low":{"value":2.00,"unit":"g/L","system":"http://unitsofmeasure.org","code":"g/L"},"high":{"value":3.60,"unit":"g/L","system":"http://unitsofmeasure.org","code":"g/L"}}]}},{"fullUrl":"Observation/Observation.1.0.0.3","resource":{"resourceType":"Observation","id":"Observation.1.0.0.3","meta":{"profile":["https://www.ehealth.fgov.be/standards/fhir/StructureDefinition/be-observation-laboratory"]},"text":{"status":"generated","div":"<div xmlns=\"http://www.w3.org/1999/xhtml\"><p><b>code: </b>http://loinc.org 2502-3 IJzersaturatie</p><p><b>subject: </b>Patient/6388178</p><p><b>effective: </b>2021-12-07T00:00:00+01:00</p><p><b>performer: </b>Practitioner/Responsible</p><p><b>result: </b>33 %</p><p><b>specimen: </b>Specimen/002815333051</p><p><b>note: </b>Analyse gedekt door accreditatie.</p><p><b>referenceRange: </b> // Low: 20 % // High: 50 % // Voorwaarde: bloed 's ochtends afgenomen.// // </p></div>"},"status":"final","code":{"coding":[{"system":"http://loinc.org","code":"2502-3"}],"text":"IJzersaturatie"},"subject":{"reference":"Patient/6388178"},"effectiveDateTime":"2021-12-07T00:00:00+01:00","issued":"2021-12-07T09:26:28+01:00","performer":[{"reference":"Practitioner/Responsible"}],"valueQuantity":{"value":33,"unit":"%","system":"http://unitsofmeasure.org","code":"%"},"note":[{"text":"Analyse gedekt door accreditatie."}],"specimen":{"reference":"Specimen/002815333051"},"referenceRange":[{"low":{"value":20,"unit":"%","system":"http://unitsofmeasure.org","code":"%"},"high":{"value":50,"unit":"%","system":"http://unitsofmeasure.org","code":"%"},"text":"Voorwaarde: bloed 's ochtends afgenomen.//"}]}},{"fullUrl":"Observation/Observation.2.0.0.0","resource":{"resourceType":"Observation","id":"Observation.2.0.0.0","meta":{"profile":["https://www.ehealth.fgov.be/standards/fhir/StructureDefinition/be-observation-laboratory"]},"text":{"status":"generated","div":"<div xmlns=\"http://www.w3.org/1999/xhtml\"><p><b>code: </b>NUTRITIE</p><p><b>subject: </b>Patient/6388178</p><p><b>effective: </b>2021-12-07T00:00:00+01:00</p><p><b>performer: </b>Practitioner/Responsible</p><p><b>member: </b> // Observation/Observation.2.0.0.1 // Observation/Observation.2.0.0.2 // </p></div>"},"status":"final","code":{"text":"NUTRITIE"},"subject":{"reference":"Patient/6388178"},"effectiveDateTime":"2021-12-07T00:00:00+01:00","performer":[{"reference":"Practitioner/Responsible"}],"hasMember":[{"reference":"Observation/Observation.2.0.0.1"},{"reference":"Observation/Observation.2.0.0.2"}]}},{"fullUrl":"Observation/Observation.2.0.0.1","resource":{"resourceType":"Observation","id":"Observation.2.0.0.1","meta":{"profile":["https://www.ehealth.fgov.be/standards/fhir/StructureDefinition/be-observation-laboratory"]},"text":{"status":"generated","div":"<div xmlns=\"http://www.w3.org/1999/xhtml\"><p><b>code: </b>http://loinc.org 5631-7 Koper</p><p><b>subject: </b>Patient/6388178</p><p><b>effective: </b>2021-12-07T00:00:00+01:00</p><p><b>performer: </b>Practitioner/Responsible</p><p><b>result: </b>130 ug/dL</p><p><b>specimen: </b>Specimen/002815333051</p><p><b>note: </b>Analyse gedekt door accreditatie.</p><p><b>referenceRange: </b> // Low: 85 ug/dL // High: 170 ug/dL // </p></div>"},"status":"final","code":{"coding":[{"system":"http://loinc.org","code":"5631-7"}],"text":"Koper"},"subject":{"reference":"Patient/6388178"},"effectiveDateTime":"2021-12-07T00:00:00+01:00","issued":"2021-12-07T09:26:31+01:00","performer":[{"reference":"Practitioner/Responsible"}],"valueQuantity":{"value":130,"unit":"ug/dL","system":"http://unitsofmeasure.org","code":"ug/dL"},"note":[{"text":"Analyse gedekt door accreditatie."}],"specimen":{"reference":"Specimen/002815333051"},"referenceRange":[{"low":{"value":85,"unit":"ug/dL","system":"http://unitsofmeasure.org","code":"ug/dL"},"high":{"value":170,"unit":"ug/dL","system":"http://unitsofmeasure.org","code":"ug/dL"}}]}},{"fullUrl":"Observation/Observation.2.0.0.2","resource":{"resourceType":"Observation","id":"Observation.2.0.0.2","meta":{"profile":["https://www.ehealth.fgov.be/standards/fhir/StructureDefinition/be-observation-laboratory"]},"text":{"status":"generated","div":"<div xmlns=\"http://www.w3.org/1999/xhtml\"><p><b>code: </b>http://www.macsys.be/hl7/testcode MED12389 Ratio koper/ijzer</p><p><b>subject: </b>Patient/6388178</p><p><b>effective: </b>2021-12-07T00:00:00+01:00</p><p><b>performer: </b>Practitioner/Responsible</p><p><b>result: </b>1,53 {}</p><p><b>specimen: </b>Specimen/002815333051</p><p><b>note: </b>Analyse gedekt door accreditatie.</p></div>"},"status":"final","code":{"coding":[{"system":"http://www.macsys.be/hl7/testcode","code":"MED12389"}],"text":"Ratio koper/ijzer"},"subject":{"reference":"Patient/6388178"},"effectiveDateTime":"2021-12-07T00:00:00+01:00","issued":"2021-12-07T09:26:31+01:00","performer":[{"reference":"Practitioner/Responsible"}],"valueQuantity":{"value":1.53,"unit":"{}","system":"http://unitsofmeasure.org","code":"{}"},"note":[{"text":"Analyse gedekt door accreditatie."}],"specimen":{"reference":"Specimen/002815333051"}}},{"fullUrl":"Observation/Observation.3.0.0.0","resource":{"resourceType":"Observation","id":"Observation.3.0.0.0","meta":{"profile":["https://www.ehealth.fgov.be/standards/fhir/StructureDefinition/be-observation-laboratory"]},"text":{"status":"generated","div":"<div xmlns=\"http://www.w3.org/1999/xhtml\"><p><b>code: </b>EIWITMETABOLISME</p><p><b>subject: </b>Patient/6388178</p><p><b>effective: </b>2021-12-07T00:00:00+01:00</p><p><b>performer: </b>Practitioner/Responsible</p><p><b>member: </b> // Observation/Observation.3.1.0.0 // Observation/Observation.3.2.0.1 // </p></div>"},"status":"final","code":{"text":"EIWITMETABOLISME"},"subject":{"reference":"Patient/6388178"},"effectiveDateTime":"2021-12-07T00:00:00+01:00","performer":[{"reference":"Practitioner/Responsible"}],"hasMember":[{"reference":"Observation/Observation.3.1.0.0"},{"reference":"Observation/Observation.3.2.0.1"}]}},{"fullUrl":"Observation/Observation.3.1.0.0","resource":{"resourceType":"Observation","id":"Observation.3.1.0.0","meta":{"profile":["https://www.ehealth.fgov.be/standards/fhir/StructureDefinition/be-observation-laboratory"]},"text":{"status":"generated","div":"<div xmlns=\"http://www.w3.org/1999/xhtml\"><p><b>code: </b>Immuunglobulinen</p><p><b>subject: </b>Patient/6388178</p><p><b>effective: </b>2021-12-07T00:00:00+01:00</p><p><b>performer: </b>Practitioner/Responsible</p><p><b>member: </b> // Observation/Observation.3.1.0.1 // </p></div>"},"status":"final","code":{"text":"Immuunglobulinen"},"subject":{"reference":"Patient/6388178"},"effectiveDateTime":"2021-12-07T00:00:00+01:00","performer":[{"reference":"Practitioner/Responsible"}],"hasMember":[{"reference":"Observation/Observation.3.1.0.1"}]}},{"fullUrl":"Observation/Observation.3.1.0.1","resource":{"resourceType":"Observation","id":"Observation.3.1.0.1","meta":{"profile":["https://www.ehealth.fgov.be/standards/fhir/StructureDefinition/be-observation-laboratory"]},"text":{"status":"generated","div":"<div xmlns=\"http://www.w3.org/1999/xhtml\"><p><b>code: </b>http://loinc.org 2458-8 IgA</p><p><b>subject: </b>Patient/6388178</p><p><b>effective: </b>2021-12-07T00:00:00+01:00</p><p><b>performer: </b>Practitioner/Responsible</p><p><b>result: </b>0,50 g/L</p><p><b>specimen: </b>Specimen/002815333051</p><p><b>interpretation: </b>L</p><p><b>note: </b>Analyse niet gedekt door accreditatie.</p><p><b>referenceRange: </b> // Low: 0,70 g/L // High: 4,00 g/L // </p></div>"},"status":"final","code":{"coding":[{"system":"http://loinc.org","code":"2458-8"}],"text":"IgA"},"subject":{"reference":"Patient/6388178"},"effectiveDateTime":"2021-12-07T00:00:00+01:00","issued":"2021-12-07T09:26:34+01:00","performer":[{"reference":"Practitioner/Responsible"}],"valueQuantity":{"value":0.50,"unit":"g/L","system":"http://unitsofmeasure.org","code":"g/L"},"interpretation":[{"coding":[{"system":"http://terminology.hl7.org/CodeSystem/v3-ObservationInterpretation","code":"L"}]}],"note":[{"text":"Analyse niet gedekt door accreditatie."}],"specimen":{"reference":"Specimen/002815333051"},"referenceRange":[{"low":{"value":0.70,"unit":"g/L","system":"http://unitsofmeasure.org","code":"g/L"},"high":{"value":4.00,"unit":"g/L","system":"http://unitsofmeasure.org","code":"g/L"}}]}},{"fullUrl":"Observation/Observation.3.2.0.1","resource":{"resourceType":"Observation","id":"Observation.3.2.0.1","meta":{"profile":["https://www.ehealth.fgov.be/standards/fhir/StructureDefinition/be-observation-laboratory"]},"text":{"status":"generated","div":"<div xmlns=\"http://www.w3.org/1999/xhtml\"><p><b>code: </b>http://www.macsys.be/hl7/testcode MED12616 Ratio IgA/transferrine</p><p><b>subject: </b>Patient/6388178</p><p><b>effective: </b>2021-12-07T00:00:00+01:00</p><p><b>performer: </b>Practitioner/Responsible</p><p><b>result: </b>0,2 {ratio}</p><p><b>specimen: </b>Specimen/002815333051</p><p><b>note: </b>Analyse niet gedekt door accreditatie.</p><p><b>referenceRange: </b> // High: 1,7 {ratio} // &gt;3,0  cirrhose // </p></div>"},"status":"final","code":{"coding":[{"system":"http://www.macsys.be/hl7/testcode","code":"MED12616"}],"text":"Ratio IgA/transferrine"},"subject":{"reference":"Patient/6388178"},"effectiveDateTime":"2021-12-07T00:00:00+01:00","issued":"2021-12-07T09:26:34+01:00","performer":[{"reference":"Practitioner/Responsible"}],"valueQuantity":{"value":0.2,"unit":"{ratio}","system":"http://unitsofmeasure.org","code":"{ratio}"},"note":[{"text":"Analyse niet gedekt door accreditatie."}],"specimen":{"reference":"Specimen/002815333051"},"referenceRange":[{"high":{"value":1.7,"unit":"{ratio}","system":"http://unitsofmeasure.org","code":"{ratio}"},"text":">3,0  cirrhose"}]}},{"fullUrl":"Observation/Observation.4.0.0.0","resource":{"resourceType":"Observation","id":"Observation.4.0.0.0","meta":{"profile":["https://www.ehealth.fgov.be/standards/fhir/StructureDefinition/be-observation-laboratory"]},"text":{"status":"generated","div":"<div xmlns=\"http://www.w3.org/1999/xhtml\"><p><b>code: </b>KOOLHYDRATENMETABOLISME</p><p><b>subject: </b>Patient/6388178</p><p><b>effective: </b>2021-12-07T00:00:00+01:00</p><p><b>performer: </b>Practitioner/Responsible</p><p><b>member: </b> // Observation/Observation.4.0.0.1 // Observation/Observation.4.0.0.2 // Observation/Observation.4.0.0.3 // </p></div>"},"status":"final","code":{"text":"KOOLHYDRATENMETABOLISME"},"subject":{"reference":"Patient/6388178"},"effectiveDateTime":"2021-12-07T00:00:00+01:00","performer":[{"reference":"Practitioner/Responsible"}],"hasMember":[{"reference":"Observation/Observation.4.0.0.1"},{"reference":"Observation/Observation.4.0.0.2"},{"reference":"Observation/Observation.4.0.0.3"}]}},{"fullUrl":"Observation/Observation.4.0.0.1","resource":{"resourceType":"Observation","id":"Observation.4.0.0.1","meta":{"profile":["https://www.ehealth.fgov.be/standards/fhir/StructureDefinition/be-observation-laboratory"]},"text":{"status":"generated","div":"<div xmlns=\"http://www.w3.org/1999/xhtml\"><p><b>code: </b>http://loinc.org 53049-3 Glucose nuchter</p><p><b>subject: </b>Patient/6388178</p><p><b>effective: </b>2021-12-07T00:00:00+01:00</p><p><b>performer: </b>Practitioner/Responsible</p><p><b>result: </b>101 mg/dL</p><p><b>specimen: </b>Specimen/001815333051</p><p><b>interpretation: </b>H</p><p><b>note: </b>Analyse gedekt door accreditatie.</p><p><b>referenceRange: </b> // Low: 70 mg/dL // High: 99 mg/dL // </p></div>"},"status":"final","code":{"coding":[{"system":"http://loinc.org","code":"53049-3"}],"text":"Glucose nuchter"},"subject":{"reference":"Patient/6388178"},"effectiveDateTime":"2021-12-07T00:00:00+01:00","issued":"2021-12-07T09:26:37+01:00","performer":[{"reference":"Practitioner/Responsible"}],"valueQuantity":{"value":101,"unit":"mg/dL","system":"http://unitsofmeasure.org","code":"mg/dL"},"interpretation":[{"coding":[{"system":"http://terminology.hl7.org/CodeSystem/v3-ObservationInterpretation","code":"H"}]}],"note":[{"text":"Analyse gedekt door accreditatie."}],"specimen":{"reference":"Specimen/001815333051"},"referenceRange":[{"low":{"value":70,"unit":"mg/dL","system":"http://unitsofmeasure.org","code":"mg/dL"},"high":{"value":99,"unit":"mg/dL","system":"http://unitsofmeasure.org","code":"mg/dL"}}]}},{"fullUrl":"Observation/Observation.4.0.0.2","resource":{"resourceType":"Observation","id":"Observation.4.0.0.2","meta":{"profile":["https://www.ehealth.fgov.be/standards/fhir/StructureDefinition/be-observation-laboratory"]},"text":{"status":"generated","div":"<div xmlns=\"http://www.w3.org/1999/xhtml\"><p><b>code: </b>http://loinc.org 20448-7 Insuline nuchter</p><p><b>subject: </b>Patient/6388178</p><p><b>effective: </b>2021-12-07T00:00:00+01:00</p><p><b>performer: </b>Practitioner/Responsible</p><p><b>result: </b>89,0 pmol/L</p><p><b>specimen: </b>Specimen/002815333051</p><p><b>note: </b>Analyse gedekt door accreditatie.</p><p><b>referenceRange: </b> // Low: 18,0 pmol/L // High: 173,0 pmol/L // Referentiewaarden enkel geldig bij nuchtere bloedname. // </p></div>"},"status":"final","code":{"coding":[{"system":"http://loinc.org","code":"20448-7"}],"text":"Insuline nuchter"},"subject":{"reference":"Patient/6388178"},"effectiveDateTime":"2021-12-07T00:00:00+01:00","issued":"2021-12-07T09:26:40+01:00","performer":[{"reference":"Practitioner/Responsible"}],"valueQuantity":{"value":89.0,"unit":"pmol/L","system":"http://unitsofmeasure.org","code":"pmol/L"},"note":[{"text":"Analyse gedekt door accreditatie."}],"specimen":{"reference":"Specimen/002815333051"},"referenceRange":[{"low":{"value":18.0,"unit":"pmol/L","system":"http://unitsofmeasure.org","code":"pmol/L"},"high":{"value":173.0,"unit":"pmol/L","system":"http://unitsofmeasure.org","code":"pmol/L"},"text":"Referentiewaarden enkel geldig bij nuchtere bloedname."}]}},{"fullUrl":"Observation/Observation.4.0.0.3","resource":{"resourceType":"Observation","id":"Observation.4.0.0.3","meta":{"profile":["https://www.ehealth.fgov.be/standards/fhir/StructureDefinition/be-observation-laboratory"]},"text":{"status":"generated","div":"<div xmlns=\"http://www.w3.org/1999/xhtml\"><p><b>code: </b>http://www.macsys.be/hl7/testcode MED12258 HOMA 1 IR</p><p><b>subject: </b>Patient/6388178</p><p><b>effective: </b>2021-12-07T00:00:00+01:00</p><p><b>performer: </b>Practitioner/Responsible</p><p><b>result: </b>3,2 {}</p><p><b>specimen: </b>Specimen/002815333051</p><p><b>interpretation: </b>H</p><p><b>note: </b>Analyse gedekt door accreditatie.</p><p><b>referenceRange: </b> // High: 2,3 {} // Indicatief voor metabool syndroom      &gt;2,3//Indicatief voor insuline resistentie   &gt;2,7 // </p></div>"},"status":"final","code":{"coding":[{"system":"http://www.macsys.be/hl7/testcode","code":"MED12258"}],"text":"HOMA 1 IR"},"subject":{"reference":"Patient/6388178"},"effectiveDateTime":"2021-12-07T00:00:00+01:00","issued":"2021-12-07T09:26:40+01:00","performer":[{"reference":"Practitioner/Responsible"}],"valueQuantity":{"value":3.2,"unit":"{}","system":"http://unitsofmeasure.org","code":"{}"},"interpretation":[{"coding":[{"system":"http://terminology.hl7.org/CodeSystem/v3-ObservationInterpretation","code":"H"}]}],"note":[{"text":"Analyse gedekt door accreditatie."}],"specimen":{"reference":"Specimen/002815333051"},"referenceRange":[{"high":{"value":2.3,"unit":"{}","system":"http://unitsofmeasure.org","code":"{}"},"text":"Indicatief voor metabool syndroom      >2,3//Indicatief voor insuline resistentie   >2,7"}]}},{"fullUrl":"Observation/Observation.5.0.0.0","resource":{"resourceType":"Observation","id":"Observation.5.0.0.0","meta":{"profile":["https://www.ehealth.fgov.be/standards/fhir/StructureDefinition/be-observation-laboratory"]},"text":{"status":"generated","div":"<div xmlns=\"http://www.w3.org/1999/xhtml\"><p><b>code: </b>GONADEN</p><p><b>subject: </b>Patient/6388178</p><p><b>effective: </b>2021-12-07T00:00:00+01:00</p><p><b>performer: </b>Practitioner/Responsible</p><p><b>member: </b> // Observation/Observation.5.0.0.1 // Observation/Observation.5.0.0.2 // Observation/Observation.5.0.0.3 // </p></div>"},"status":"final","code":{"text":"GONADEN"},"subject":{"reference":"Patient/6388178"},"effectiveDateTime":"2021-12-07T00:00:00+01:00","performer":[{"reference":"Practitioner/Responsible"}],"hasMember":[{"reference":"Observation/Observation.5.0.0.1"},{"reference":"Observation/Observation.5.0.0.2"},{"reference":"Observation/Observation.5.0.0.3"}]}},{"fullUrl":"Observation/Observation.5.0.0.1","resource":{"resourceType":"Observation","id":"Observation.5.0.0.1","meta":{"profile":["https://www.ehealth.fgov.be/standards/fhir/StructureDefinition/be-observation-laboratory"]},"text":{"status":"generated","div":"<div xmlns=\"http://www.w3.org/1999/xhtml\"><p><b>code: </b>http://loinc.org 2842-3 Prolactine</p><p><b>subject: </b>Patient/6388178</p><p><b>effective: </b>2021-12-07T00:00:00+01:00</p><p><b>performer: </b>Practitioner/Responsible</p><p><b>result: </b>82,6 ug/L</p><p><b>specimen: </b>Specimen/002815333051</p><p><b>interpretation: </b>H</p><p><b>note: </b>Analyse gedekt door accreditatie.</p><p><b>referenceRange: </b> // Low: 4,0 ug/L // High: 15,2 ug/L // </p></div>"},"status":"final","code":{"coding":[{"system":"http://loinc.org","code":"2842-3"}],"text":"Prolactine"},"subject":{"reference":"Patient/6388178"},"effectiveDateTime":"2021-12-07T00:00:00+01:00","issued":"2021-12-07T09:26:45+01:00","performer":[{"reference":"Practitioner/Responsible"}],"valueQuantity":{"value":82.6,"unit":"ug/L","system":"http://unitsofmeasure.org","code":"ug/L"},"interpretation":[{"coding":[{"system":"http://terminology.hl7.org/CodeSystem/v3-ObservationInterpretation","code":"H"}]}],"note":[{"text":"Analyse gedekt door accreditatie."}],"specimen":{"reference":"Specimen/002815333051"},"referenceRange":[{"low":{"value":4.0,"unit":"ug/L","system":"http://unitsofmeasure.org","code":"ug/L"},"high":{"value":15.2,"unit":"ug/L","system":"http://unitsofmeasure.org","code":"ug/L"}}]}},{"fullUrl":"Observation/Observation.5.0.0.2","resource":{"resourceType":"Observation","id":"Observation.5.0.0.2","meta":{"profile":["https://www.ehealth.fgov.be/standards/fhir/StructureDefinition/be-observation-laboratory"]},"text":{"status":"generated","div":"<div xmlns=\"http://www.w3.org/1999/xhtml\"><p><b>code: </b>http://loinc.org 42607-2 Prolactine monomeer</p><p><b>subject: </b>Patient/6388178</p><p><b>effective: </b>2021-12-07T00:00:00+01:00</p><p><b>performer: </b>Practitioner/Responsible</p><p><b>result: </b>69,5 ug/L</p><p><b>specimen: </b>Specimen/012815333051</p><p><b>interpretation: </b>H</p><p><b>note: </b>° Analyse uitgevoerd door extern labo.</p><p><b>referenceRange: </b> // Low: 2,9 ug/L // High: 11,6 ug/L // </p></div>"},"status":"final","code":{"coding":[{"system":"http://loinc.org","code":"42607-2"}],"text":"Prolactine monomeer"},"subject":{"reference":"Patient/6388178"},"effectiveDateTime":"2021-12-07T00:00:00+01:00","issued":"2021-12-07T09:26:48+01:00","performer":[{"reference":"Practitioner/Responsible"}],"valueQuantity":{"value":69.5,"unit":"ug/L","system":"http://unitsofmeasure.org","code":"ug/L"},"interpretation":[{"coding":[{"system":"http://terminology.hl7.org/CodeSystem/v3-ObservationInterpretation","code":"H"}]}],"note":[{"text":"° Analyse uitgevoerd door extern labo."},{"text":"Analyse niet gedekt door accreditatie."}],"specimen":{"reference":"Specimen/012815333051"},"referenceRange":[{"low":{"value":2.9,"unit":"ug/L","system":"http://unitsofmeasure.org","code":"ug/L"},"high":{"value":11.6,"unit":"ug/L","system":"http://unitsofmeasure.org","code":"ug/L"}}]}},{"fullUrl":"Observation/Observation.5.0.0.3","resource":{"resourceType":"Observation","id":"Observation.5.0.0.3","meta":{"profile":["https://www.ehealth.fgov.be/standards/fhir/StructureDefinition/be-observation-laboratory"]},"text":{"status":"generated","div":"<div xmlns=\"http://www.w3.org/1999/xhtml\"><p><b>code: </b>http://loinc.org 38926-2 Macroprolactine</p><p><b>subject: </b>Patient/6388178</p><p><b>effective: </b>2021-12-07T00:00:00+01:00</p><p><b>performer: </b>Practitioner/Responsible</p><p><b>result: </b>Hyperprolactinemie</p><p><b>specimen: </b>Specimen/002815333051</p><p><b>note: </b>° Analyse uitgevoerd door extern labo.</p></div>"},"status":"final","code":{"coding":[{"system":"http://loinc.org","code":"38926-2"}],"text":"Macroprolactine"},"subject":{"reference":"Patient/6388178"},"effectiveDateTime":"2021-12-07T00:00:00+01:00","issued":"2021-12-07T09:26:52+01:00","performer":[{"reference":"Practitioner/Responsible"}],"valueString":"Hyperprolactinemie","note":[{"text":"° Analyse uitgevoerd door extern labo."},{"text":"Analyse niet gedekt door accreditatie."}],"specimen":{"reference":"Specimen/002815333051"}}},{"fullUrl":"Observation/Observation.6.0.0.0","resource":{"resourceType":"Observation","id":"Observation.6.0.0.0","meta":{"profile":["https://www.ehealth.fgov.be/standards/fhir/StructureDefinition/be-observation-laboratory"]},"text":{"status":"generated","div":"<div xmlns=\"http://www.w3.org/1999/xhtml\"><p><b>code: </b>SEROLOGIE</p><p><b>subject: </b>Patient/6388178</p><p><b>effective: </b>2021-12-07T00:00:00+01:00</p><p><b>performer: </b>Practitioner/Responsible</p><p><b>member: </b> // Observation/Observation.6.1.0.0 // </p></div>"},"status":"final","code":{"text":"SEROLOGIE"},"subject":{"reference":"Patient/6388178"},"effectiveDateTime":"2021-12-07T00:00:00+01:00","performer":[{"reference":"Practitioner/Responsible"}],"hasMember":[{"reference":"Observation/Observation.6.1.0.0"}]}},{"fullUrl":"Observation/Observation.6.1.0.0","resource":{"resourceType":"Observation","id":"Observation.6.1.0.0","meta":{"profile":["https://www.ehealth.fgov.be/standards/fhir/StructureDefinition/be-observation-laboratory"]},"text":{"status":"generated","div":"<div xmlns=\"http://www.w3.org/1999/xhtml\"><p><b>code: </b>Bacterieel</p><p><b>subject: </b>Patient/6388178</p><p><b>effective: </b>2021-12-07T00:00:00+01:00</p><p><b>performer: </b>Practitioner/Responsible</p><p><b>member: </b> // Observation/Observation.6.1.0.1 // </p></div>"},"status":"final","code":{"text":"Bacterieel"},"subject":{"reference":"Patient/6388178"},"effectiveDateTime":"2021-12-07T00:00:00+01:00","performer":[{"reference":"Practitioner/Responsible"}],"hasMember":[{"reference":"Observation/Observation.6.1.0.1"}]}},{"fullUrl":"Observation/Observation.6.1.0.1","resource":{"resourceType":"Observation","id":"Observation.6.1.0.1","meta":{"profile":["https://www.ehealth.fgov.be/standards/fhir/StructureDefinition/be-observation-laboratory"]},"text":{"status":"generated","div":"<div xmlns=\"http://www.w3.org/1999/xhtml\"><p><b>code: </b>http://loinc.org 5326-4 Bartonella henselae IgG</p><p><b>subject: </b>Patient/6388178</p><p><b>effective: </b>2021-12-07T00:00:00+01:00</p><p><b>performer: </b>Practitioner/Responsible</p><p><b>result: </b>Negatief</p><p><b>specimen: </b>Specimen/002815333051</p><p><b>note: </b>De IgM worden enkel bepaald als de IgG positief\r\nzijn. Er dient te worden opgemerkt dat de\r\nserologie negatief kan zijn in de acute fase. Als\r\nde klinische en epidemiologische context\r\nsuggestief zijn voor een Bartonella infectie is\r\neen latere serol</p><p><b>referenceRange: </b> // Negatief        &lt;1/320//Zwak positief    1/320//Positief         1/640//Sterk positief  &gt;=1280 // </p></div>"},"status":"final","code":{"coding":[{"system":"http://loinc.org","code":"5326-4"}],"text":"Bartonella henselae IgG"},"subject":{"reference":"Patient/6388178"},"effectiveDateTime":"2021-12-07T00:00:00+01:00","issued":"2021-12-07T09:27:13+01:00","performer":[{"reference":"Practitioner/Responsible"}],"valueString":"Negatief","note":[{"text":"De IgM worden enkel bepaald als de IgG positief\r\nzijn. Er dient te worden opgemerkt dat de\r\nserologie negatief kan zijn in de acute fase. Als\r\nde klinische en epidemiologische context\r\nsuggestief zijn voor een Bartonella infectie is\r\neen latere serol"},{"text":"° Analyse uitgevoerd door extern labo."},{"text":"Analyse niet gedekt door accreditatie."}],"specimen":{"reference":"Specimen/002815333051"},"referenceRange":[{"text":"Negatief        <1/320//Zwak positief    1/320//Positief         1/640//Sterk positief  >=1280"}]}},{"fullUrl":"Observation/Observation.7.0.0.0","resource":{"resourceType":"Observation","id":"Observation.7.0.0.0","meta":{"profile":["https://www.ehealth.fgov.be/standards/fhir/StructureDefinition/be-observation-laboratory"]},"text":{"status":"generated","div":"<div xmlns=\"http://www.w3.org/1999/xhtml\"><p><b>code: </b>DRUGMONITORING</p><p><b>subject: </b>Patient/6388178</p><p><b>effective: </b>2021-12-07T00:00:00+01:00</p><p><b>performer: </b>Practitioner/Responsible</p><p><b>member: </b> // Observation/Observation.7.0.0.1 // </p></div>"},"status":"final","code":{"text":"DRUGMONITORING"},"subject":{"reference":"Patient/6388178"},"effectiveDateTime":"2021-12-07T00:00:00+01:00","performer":[{"reference":"Practitioner/Responsible"}],"hasMember":[{"reference":"Observation/Observation.7.0.0.1"}]}},{"fullUrl":"Observation/Observation.7.0.0.1","resource":{"resourceType":"Observation","id":"Observation.7.0.0.1","meta":{"profile":["https://www.ehealth.fgov.be/standards/fhir/StructureDefinition/be-observation-laboratory"]},"text":{"status":"generated","div":"<div xmlns=\"http://www.w3.org/1999/xhtml\"><p><b>code: </b>http://www.macsys.be/hl7/testcode MED18622 Ustekinumab</p><p><b>subject: </b>Patient/6388178</p><p><b>effective: </b>2021-12-07T00:00:00+01:00</p><p><b>performer: </b>Practitioner/Responsible</p><p><b>result: </b>2,5 ug/mL</p><p><b>specimen: </b>Specimen/002815333051</p><p><b>note: </b>° Analyse uitgevoerd door extern labo.</p></div>"},"status":"final","code":{"coding":[{"system":"http://www.macsys.be/hl7/testcode","code":"MED18622"}],"text":"Ustekinumab"},"subject":{"reference":"Patient/6388178"},"effectiveDateTime":"2021-12-07T00:00:00+01:00","issued":"2021-12-07T09:28:31+01:00","performer":[{"reference":"Practitioner/Responsible"}],"valueQuantity":{"value":2.5,"unit":"ug/mL","system":"http://unitsofmeasure.org","code":"ug/mL"},"note":[{"text":"° Analyse uitgevoerd door extern labo."},{"text":"Analyse niet gedekt door accreditatie."}],"specimen":{"reference":"Specimen/002815333051"}}},{"fullUrl":"Observation/Observation.8.0.0.0","resource":{"resourceType":"Observation","id":"Observation.8.0.0.0","meta":{"profile":["https://www.ehealth.fgov.be/standards/fhir/StructureDefinition/be-observation-laboratory"]},"text":{"status":"generated","div":"<div xmlns=\"http://www.w3.org/1999/xhtml\"><p><b>code: </b>TOXICOLOGIE URINE</p><p><b>subject: </b>Patient/6388178</p><p><b>effective: </b>2021-12-07T00:00:00+01:00</p><p><b>performer: </b>Practitioner/Responsible</p><p><b>member: </b> // Observation/Observation.8.0.0.1 // Observation/Observation.8.0.0.2 // </p></div>"},"status":"final","code":{"text":"TOXICOLOGIE URINE"},"subject":{"reference":"Patient/6388178"},"effectiveDateTime":"2021-12-07T00:00:00+01:00","performer":[{"reference":"Practitioner/Responsible"}],"hasMember":[{"reference":"Observation/Observation.8.0.0.1"},{"reference":"Observation/Observation.8.0.0.2"}]}},{"fullUrl":"Observation/Observation.8.0.0.1","resource":{"resourceType":"Observation","id":"Observation.8.0.0.1","meta":{"profile":["https://www.ehealth.fgov.be/standards/fhir/StructureDefinition/be-observation-laboratory"]},"text":{"status":"generated","div":"<div xmlns=\"http://www.w3.org/1999/xhtml\"><p><b>code: </b>http://loinc.org 9465-6 Benzeen</p><p><b>subject: </b>Patient/6388178</p><p><b>effective: </b>2021-12-07T00:00:00+01:00</p><p><b>performer: </b>Practitioner/Responsible</p><p><b>result: </b>&lt;5,00 ug/L</p><p><b>specimen: </b>Specimen/003815333051</p><p><b>note: </b>Analyse niet gedekt door accreditatie.</p><p><b>referenceRange: </b> // Bij blootstelling: &lt;5 µg/L// // </p></div>"},"status":"final","code":{"coding":[{"system":"http://loinc.org","code":"9465-6"}],"text":"Benzeen"},"subject":{"reference":"Patient/6388178"},"effectiveDateTime":"2021-12-07T00:00:00+01:00","issued":"2021-12-07T09:27:29+01:00","performer":[{"reference":"Practitioner/Responsible"}],"valueQuantity":{"value":5.00,"comparator":"<","unit":"ug/L","system":"http://unitsofmeasure.org","code":"ug/L"},"note":[{"text":"Analyse niet gedekt door accreditatie."}],"specimen":{"reference":"Specimen/003815333051"},"referenceRange":[{"text":"Bij blootstelling: <5 µg/L//"}]}},{"fullUrl":"Observation/Observation.8.0.0.2","resource":{"resourceType":"Observation","id":"Observation.8.0.0.2","meta":{"profile":["https://www.ehealth.fgov.be/standards/fhir/StructureDefinition/be-observation-laboratory"]},"text":{"status":"generated","div":"<div xmlns=\"http://www.w3.org/1999/xhtml\"><p><b>code: </b>http://www.macsys.be/hl7/testcode MED15551 Benzeen</p><p><b>subject: </b>Patient/6388178</p><p><b>effective: </b>2021-12-07T00:00:00+01:00</p><p><b>performer: </b>Practitioner/Responsible</p><p><b>result: </b>&lt;4,59 ug/g{Cre}</p><p><b>specimen: </b>Specimen/003815333051</p><p><b>note: </b>Analyse niet gedekt door accreditatie.</p><p><b>referenceRange: </b> // Voor evaluatie van blootstelling aan benzeen is  muconzuur//in urine een geschikte merker. // </p></div>"},"status":"final","code":{"coding":[{"system":"http://www.macsys.be/hl7/testcode","code":"MED15551"}],"text":"Benzeen"},"subject":{"reference":"Patient/6388178"},"effectiveDateTime":"2021-12-07T00:00:00+01:00","issued":"2021-12-07T09:27:43+01:00","performer":[{"reference":"Practitioner/Responsible"}],"valueQuantity":{"value":4.59,"comparator":"<","unit":"ug/g{Cre}","system":"http://unitsofmeasure.org","code":"ug/g{Cre}"},"note":[{"text":"Analyse niet gedekt door accreditatie."}],"specimen":{"reference":"Specimen/003815333051"},"referenceRange":[{"text":"Voor evaluatie van blootstelling aan benzeen is  muconzuur//in urine een geschikte merker."}]}},{"fullUrl":"Observation/Observation.9.0.0.0","resource":{"resourceType":"Observation","id":"Observation.9.0.0.0","meta":{"profile":["https://www.ehealth.fgov.be/standards/fhir/StructureDefinition/be-observation-laboratory"]},"text":{"status":"generated","div":"<div xmlns=\"http://www.w3.org/1999/xhtml\"><p><b>code: </b>BIOCHEMIE URINE</p><p><b>subject: </b>Patient/6388178</p><p><b>effective: </b>2021-12-07T00:00:00+01:00</p><p><b>performer: </b>Practitioner/Responsible</p><p><b>member: </b> // Observation/Observation.9.0.0.1 // </p></div>"},"status":"final","code":{"text":"BIOCHEMIE URINE"},"subject":{"reference":"Patient/6388178"},"effectiveDateTime":"2021-12-07T00:00:00+01:00","performer":[{"reference":"Practitioner/Responsible"}],"hasMember":[{"reference":"Observation/Observation.9.0.0.1"}]}},{"fullUrl":"Observation/Observation.9.0.0.1","resource":{"resourceType":"Observation","id":"Observation.9.0.0.1","meta":{"profile":["https://www.ehealth.fgov.be/standards/fhir/StructureDefinition/be-observation-laboratory"]},"text":{"status":"generated","div":"<div xmlns=\"http://www.w3.org/1999/xhtml\"><p><b>code: </b>http://loinc.org 2161-8 Creatinine</p><p><b>subject: </b>Patient/6388178</p><p><b>effective: </b>2021-12-07T00:00:00+01:00</p><p><b>performer: </b>Practitioner/Responsible</p><p><b>result: </b>1,09 g/L</p><p><b>specimen: </b>Specimen/003815333051</p><p><b>note: </b>Analyse gedekt door accreditatie.</p><p><b>referenceRange: </b> // Low: 0,39 g/L // High: 2,59 g/L // </p></div>"},"status":"final","code":{"coding":[{"system":"http://loinc.org","code":"2161-8"}],"text":"Creatinine"},"subject":{"reference":"Patient/6388178"},"effectiveDateTime":"2021-12-07T00:00:00+01:00","issued":"2021-12-07T09:27:43+01:00","performer":[{"reference":"Practitioner/Responsible"}],"valueQuantity":{"value":1.09,"unit":"g/L","system":"http://unitsofmeasure.org","code":"g/L"},"note":[{"text":"Analyse gedekt door accreditatie."}],"specimen":{"reference":"Specimen/003815333051"},"referenceRange":[{"low":{"value":0.39,"unit":"g/L","system":"http://unitsofmeasure.org","code":"g/L"},"high":{"value":2.59,"unit":"g/L","system":"http://unitsofmeasure.org","code":"g/L"}}]}},{"fullUrl":"Observation/Observation.10.0.0.0","resource":{"resourceType":"Observation","id":"Observation.10.0.0.0","meta":{"profile":["https://www.ehealth.fgov.be/standards/fhir/StructureDefinition/be-observation-laboratory"]},"text":{"status":"generated","div":"<div xmlns=\"http://www.w3.org/1999/xhtml\"><p><b>code: </b>DIVERSEN</p><p><b>subject: </b>Patient/6388178</p><p><b>effective: </b>2021-12-07T00:00:00+01:00</p><p><b>performer: </b>Practitioner/Responsible</p><p><b>member: </b> // Observation/Observation.10.1.0.0 // </p></div>"},"status":"final","code":{"text":"DIVERSEN"},"subject":{"reference":"Patient/6388178"},"effectiveDateTime":"2021-12-07T00:00:00+01:00","performer":[{"reference":"Practitioner/Responsible"}],"hasMember":[{"reference":"Observation/Observation.10.1.0.0"}]}},{"fullUrl":"Observation/Observation.10.1.0.0","resource":{"resourceType":"Observation","id":"Observation.10.1.0.0","meta":{"profile":["https://www.ehealth.fgov.be/standards/fhir/StructureDefinition/be-observation-laboratory"]},"text":{"status":"generated","div":"<div xmlns=\"http://www.w3.org/1999/xhtml\"><p><b>code: </b>Lactaat inspanningstest</p><p><b>subject: </b>Patient/6388178</p><p><b>effective: </b>2021-12-07T00:00:00+01:00</p><p><b>performer: </b>Practitioner/Responsible</p><p><b>member: </b> // Observation/Observation.10.1.0.1 // Observation/Observation.10.1.0.2 // Observation/Observation.10.1.0.3 // Observation/Observation.10.1.0.4 // Observation/Observation.10.1.0.5 // Observation/Observation.10.1.0.6 // Observation/Observation.10.1.0.7 // Observation/Observation.10.1.0.8 // </p></div>"},"status":"final","code":{"text":"Lactaat inspanningstest"},"subject":{"reference":"Patient/6388178"},"effectiveDateTime":"2021-12-07T00:00:00+01:00","performer":[{"reference":"Practitioner/Responsible"}],"hasMember":[{"reference":"Observation/Observation.10.1.0.1"},{"reference":"Observation/Observation.10.1.0.2"},{"reference":"Observation/Observation.10.1.0.3"},{"reference":"Observation/Observation.10.1.0.4"},{"reference":"Observation/Observation.10.1.0.5"},{"reference":"Observation/Observation.10.1.0.6"},{"reference":"Observation/Observation.10.1.0.7"},{"reference":"Observation/Observation.10.1.0.8"}]}},{"fullUrl":"Observation/Observation.10.1.0.1","resource":{"resourceType":"Observation","id":"Observation.10.1.0.1","meta":{"profile":["https://www.ehealth.fgov.be/standards/fhir/StructureDefinition/be-observation-laboratory"]},"text":{"status":"generated","div":"<div xmlns=\"http://www.w3.org/1999/xhtml\"><p><b>code: </b>http://loinc.org 25899-6 Lactaat staal 1</p><p><b>subject: </b>Patient/6388178</p><p><b>effective: </b>2021-12-07T00:00:00+01:00</p><p><b>performer: </b>Practitioner/Responsible</p><p><b>result: </b>1,31 mmol/L</p><p><b>specimen: </b>Specimen/004815333051</p><p><b>note: </b>Analyse niet gedekt door accreditatie.</p></div>"},"status":"final","code":{"coding":[{"system":"http://loinc.org","code":"25899-6"}],"text":"Lactaat staal 1"},"subject":{"reference":"Patient/6388178"},"effectiveDateTime":"2021-12-07T00:00:00+01:00","issued":"2021-12-07T09:27:47+01:00","performer":[{"reference":"Practitioner/Responsible"}],"valueQuantity":{"value":1.31,"unit":"mmol/L","system":"http://unitsofmeasure.org","code":"mmol/L"},"note":[{"text":"Analyse niet gedekt door accreditatie."}],"specimen":{"reference":"Specimen/004815333051"}}},{"fullUrl":"Observation/Observation.10.1.0.2","resource":{"resourceType":"Observation","id":"Observation.10.1.0.2","meta":{"profile":["https://www.ehealth.fgov.be/standards/fhir/StructureDefinition/be-observation-laboratory"]},"text":{"status":"generated","div":"<div xmlns=\"http://www.w3.org/1999/xhtml\"><p><b>code: </b>http://loinc.org 25900-2 Lactaat staal 2</p><p><b>subject: </b>Patient/6388178</p><p><b>effective: </b>2021-12-07T00:00:00+01:00</p><p><b>performer: </b>Practitioner/Responsible</p><p><b>result: </b>1,60 mmol/L</p><p><b>specimen: </b>Specimen/005815333051</p><p><b>note: </b>Analyse niet gedekt door accreditatie.</p></div>"},"status":"final","code":{"coding":[{"system":"http://loinc.org","code":"25900-2"}],"text":"Lactaat staal 2"},"subject":{"reference":"Patient/6388178"},"effectiveDateTime":"2021-12-07T00:00:00+01:00","issued":"2021-12-07T09:27:50+01:00","performer":[{"reference":"Practitioner/Responsible"}],"valueQuantity":{"value":1.60,"unit":"mmol/L","system":"http://unitsofmeasure.org","code":"mmol/L"},"note":[{"text":"Analyse niet gedekt door accreditatie."}],"specimen":{"reference":"Specimen/005815333051"}}},{"fullUrl":"Observation/Observation.10.1.0.3","resource":{"resourceType":"Observation","id":"Observation.10.1.0.3","meta":{"profile":["https://www.ehealth.fgov.be/standards/fhir/StructureDefinition/be-observation-laboratory"]},"text":{"status":"generated","div":"<div xmlns=\"http://www.w3.org/1999/xhtml\"><p><b>code: </b>http://loinc.org 25901-0 Lactaat staal 3</p><p><b>subject: </b>Patient/6388178</p><p><b>effective: </b>2021-12-07T00:00:00+01:00</p><p><b>performer: </b>Practitioner/Responsible</p><p><b>result: </b>1,61 mmol/L</p><p><b>specimen: </b>Specimen/006815333051</p><p><b>note: </b>Analyse niet gedekt door accreditatie.</p></div>"},"status":"final","code":{"coding":[{"system":"http://loinc.org","code":"25901-0"}],"text":"Lactaat staal 3"},"subject":{"reference":"Patient/6388178"},"effectiveDateTime":"2021-12-07T00:00:00+01:00","issued":"2021-12-07T09:27:53+01:00","performer":[{"reference":"Practitioner/Responsible"}],"valueQuantity":{"value":1.61,"unit":"mmol/L","system":"http://unitsofmeasure.org","code":"mmol/L"},"note":[{"text":"Analyse niet gedekt door accreditatie."}],"specimen":{"reference":"Specimen/006815333051"}}},{"fullUrl":"Observation/Observation.10.1.0.4","resource":{"resourceType":"Observation","id":"Observation.10.1.0.4","meta":{"profile":["https://www.ehealth.fgov.be/standards/fhir/StructureDefinition/be-observation-laboratory"]},"text":{"status":"generated","div":"<div xmlns=\"http://www.w3.org/1999/xhtml\"><p><b>code: </b>http://loinc.org 25902-8 Lactaat staal 4</p><p><b>subject: </b>Patient/6388178</p><p><b>effective: </b>2021-12-07T00:00:00+01:00</p><p><b>performer: </b>Practitioner/Responsible</p><p><b>result: </b>1,92 mmol/L</p><p><b>specimen: </b>Specimen/007815333051</p><p><b>note: </b>Analyse niet gedekt door accreditatie.</p></div>"},"status":"final","code":{"coding":[{"system":"http://loinc.org","code":"25902-8"}],"text":"Lactaat staal 4"},"subject":{"reference":"Patient/6388178"},"effectiveDateTime":"2021-12-07T00:00:00+01:00","issued":"2021-12-07T09:27:56+01:00","performer":[{"reference":"Practitioner/Responsible"}],"valueQuantity":{"value":1.92,"unit":"mmol/L","system":"http://unitsofmeasure.org","code":"mmol/L"},"note":[{"text":"Analyse niet gedekt door accreditatie."}],"specimen":{"reference":"Specimen/007815333051"}}},{"fullUrl":"Observation/Observation.10.1.0.5","resource":{"resourceType":"Observation","id":"Observation.10.1.0.5","meta":{"profile":["https://www.ehealth.fgov.be/standards/fhir/StructureDefinition/be-observation-laboratory"]},"text":{"status":"generated","div":"<div xmlns=\"http://www.w3.org/1999/xhtml\"><p><b>code: </b>http://loinc.org 25903-6 Lactaat staal 5</p><p><b>subject: </b>Patient/6388178</p><p><b>effective: </b>2021-12-07T00:00:00+01:00</p><p><b>performer: </b>Practitioner/Responsible</p><p><b>result: </b>1,93 mmol/L</p><p><b>specimen: </b>Specimen/008815333051</p><p><b>note: </b>Analyse niet gedekt door accreditatie.</p></div>"},"status":"final","code":{"coding":[{"system":"http://loinc.org","code":"25903-6"}],"text":"Lactaat staal 5"},"subject":{"reference":"Patient/6388178"},"effectiveDateTime":"2021-12-07T00:00:00+01:00","issued":"2021-12-07T09:27:59+01:00","performer":[{"reference":"Practitioner/Responsible"}],"valueQuantity":{"value":1.93,"unit":"mmol/L","system":"http://unitsofmeasure.org","code":"mmol/L"},"note":[{"text":"Analyse niet gedekt door accreditatie."}],"specimen":{"reference":"Specimen/008815333051"}}},{"fullUrl":"Observation/Observation.10.1.0.6","resource":{"resourceType":"Observation","id":"Observation.10.1.0.6","meta":{"profile":["https://www.ehealth.fgov.be/standards/fhir/StructureDefinition/be-observation-laboratory"]},"text":{"status":"generated","div":"<div xmlns=\"http://www.w3.org/1999/xhtml\"><p><b>code: </b>http://loinc.org 25904-4 Lactaat staal 6</p><p><b>subject: </b>Patient/6388178</p><p><b>effective: </b>2021-12-07T00:00:00+01:00</p><p><b>performer: </b>Practitioner/Responsible</p><p><b>result: </b>5,91 mmol/L</p><p><b>specimen: </b>Specimen/009815333051</p><p><b>note: </b>Analyse niet gedekt door accreditatie.</p></div>"},"status":"final","code":{"coding":[{"system":"http://loinc.org","code":"25904-4"}],"text":"Lactaat staal 6"},"subject":{"reference":"Patient/6388178"},"effectiveDateTime":"2021-12-07T00:00:00+01:00","issued":"2021-12-07T09:28:02+01:00","performer":[{"reference":"Practitioner/Responsible"}],"valueQuantity":{"value":5.91,"unit":"mmol/L","system":"http://unitsofmeasure.org","code":"mmol/L"},"note":[{"text":"Analyse niet gedekt door accreditatie."}],"specimen":{"reference":"Specimen/009815333051"}}},{"fullUrl":"Observation/Observation.10.1.0.7","resource":{"resourceType":"Observation","id":"Observation.10.1.0.7","meta":{"profile":["https://www.ehealth.fgov.be/standards/fhir/StructureDefinition/be-observation-laboratory"]},"text":{"status":"generated","div":"<div xmlns=\"http://www.w3.org/1999/xhtml\"><p><b>code: </b>http://www.macsys.be/hl7/testcode MED13337 Lactaat staal 7</p><p><b>subject: </b>Patient/6388178</p><p><b>effective: </b>2021-12-07T00:00:00+01:00</p><p><b>performer: </b>Practitioner/Responsible</p><p><b>result: </b>8,89 mmol/L</p><p><b>specimen: </b>Specimen/010815333051</p><p><b>note: </b>Analyse niet gedekt door accreditatie.</p></div>"},"status":"final","code":{"coding":[{"system":"http://www.macsys.be/hl7/testcode","code":"MED13337"}],"text":"Lactaat staal 7"},"subject":{"reference":"Patient/6388178"},"effectiveDateTime":"2021-12-07T00:00:00+01:00","issued":"2021-12-07T09:28:05+01:00","performer":[{"reference":"Practitioner/Responsible"}],"valueQuantity":{"value":8.89,"unit":"mmol/L","system":"http://unitsofmeasure.org","code":"mmol/L"},"note":[{"text":"Analyse niet gedekt door accreditatie."}],"specimen":{"reference":"Specimen/010815333051"}}},{"fullUrl":"Observation/Observation.10.1.0.8","resource":{"resourceType":"Observation","id":"Observation.10.1.0.8","meta":{"profile":["https://www.ehealth.fgov.be/standards/fhir/StructureDefinition/be-observation-laboratory"]},"text":{"status":"generated","div":"<div xmlns=\"http://www.w3.org/1999/xhtml\"><p><b>code: </b>http://www.macsys.be/hl7/testcode MED13338 Lactaat staal 8</p><p><b>subject: </b>Patient/6388178</p><p><b>effective: </b>2021-12-07T00:00:00+01:00</p><p><b>performer: </b>Practitioner/Responsible</p><p><b>result: </b>11,56 mmol/L</p><p><b>specimen: </b>Specimen/011815333051</p><p><b>note: </b>Analyse niet gedekt door accreditatie.</p></div>"},"status":"final","code":{"coding":[{"system":"http://www.macsys.be/hl7/testcode","code":"MED13338"}],"text":"Lactaat staal 8"},"subject":{"reference":"Patient/6388178"},"effectiveDateTime":"2021-12-07T00:00:00+01:00","issued":"2021-12-07T09:28:08+01:00","performer":[{"reference":"Practitioner/Responsible"}],"valueQuantity":{"value":11.56,"unit":"mmol/L","system":"http://unitsofmeasure.org","code":"mmol/L"},"note":[{"text":"Analyse niet gedekt door accreditatie."}],"specimen":{"reference":"Specimen/011815333051"}}},{"fullUrl":"DiagnosticReport/815333051","resource":{"resourceType":"DiagnosticReport","id":"815333051","meta":{"versionId":"10","profile":["https://www.ehealth.fgov.be/standards/fhir/StructureDefinition/be-laboratory-report"]},"language":"nl","text":{"status":"generated","div":"<div xmlns=\"http://www.w3.org/1999/xhtml\" xml:lang=\"nl\" lang=\"nl\"><p><b>id: </b>815333051</p><p><b>basedOn: </b>ServiceRequest/815333051</p><p><b>status: </b>preliminary</p><p><b>category: </b>http://terminology.hl7.org/CodeSystem/v2-0074 LAB Laboratory</p><p><b>code: </b>http://loinc.org 26436-6 Laboratory studies (set)</p><p><b>subject: </b>Patient/6388178</p><p><b>effective: </b>2021-12-07T00:00:00+01:00</p><p><b>issued: </b>2021-12-08T13:59:57+01:00</p><p><b>performer: </b>Organization/81365677998</p><p><b>resultsInterpreter: </b>Practitioner/Responsible</p><p><b>specimen: </b> // Specimen/001815333051 // Specimen/002815333051 // Specimen/004815333051 // Specimen/005815333051 // Specimen/006815333051 // Specimen/007815333051 // Specimen/008815333051 // Specimen/009815333051 // Specimen/010815333051 // Specimen/011815333051 // Specimen/012815333051 // Specimen/003815333051 // </p><p><b>result: </b> // Observation/Observation.1.0.0.0 // Observation/Observation.2.0.0.0 // Observation/Observation.3.0.0.0 // Observation/Observation.4.0.0.0 // Observation/Observation.5.0.0.0 // Observation/Observation.6.0.0.0 // Observation/Observation.7.0.0.0 // Observation/Observation.8.0.0.0 // Observation/Observation.9.0.0.0 // Observation/Observation.10.0.0.0 // </p></div>"},"identifier":[{"system":"https://www.ehealth.fgov.be/lab-report/diagnostic-report-id","value":"81365677998.815333051"}],"basedOn":[{"reference":"ServiceRequest/815333051"}],"status":"preliminary","category":[{"coding":[{"system":"http://terminology.hl7.org/CodeSystem/v2-0074","code":"LAB","display":"Laboratory"}]}],"code":{"coding":[{"system":"http://loinc.org","code":"26436-6","display":"Laboratory studies (set)"}]},"subject":{"reference":"Patient/6388178"},"effectiveDateTime":"2021-12-07T00:00:00+01:00","issued":"2021-12-08T13:59:57+01:00","performer":[{"reference":"Organization/81365677998"}],"resultsInterpreter":[{"reference":"Practitioner/Responsible"}],"specimen":[{"reference":"Specimen/001815333051"},{"reference":"Specimen/002815333051"},{"reference":"Specimen/004815333051"},{"reference":"Specimen/005815333051"},{"reference":"Specimen/006815333051"},{"reference":"Specimen/007815333051"},{"reference":"Specimen/008815333051"},{"reference":"Specimen/009815333051"},{"reference":"Specimen/010815333051"},{"reference":"Specimen/011815333051"},{"reference":"Specimen/012815333051"},{"reference":"Specimen/003815333051"}],"result":[{"reference":"Observation/Observation.1.0.0.0"},{"reference":"Observation/Observation.2.0.0.0"},{"reference":"Observation/Observation.3.0.0.0"},{"reference":"Observation/Observation.4.0.0.0"},{"reference":"Observation/Observation.5.0.0.0"},{"reference":"Observation/Observation.6.0.0.0"},{"reference":"Observation/Observation.7.0.0.0"},{"reference":"Observation/Observation.8.0.0.0"},{"reference":"Observation/Observation.9.0.0.0"},{"reference":"Observation/Observation.10.0.0.0"}]}},{"fullUrl":"Organization/81365677998","resource":{"resourceType":"Organization","id":"81365677998","meta":{"profile":["https://www.ehealth.fgov.be/standards/fhir/StructureDefinition/be-organization"]},"text":{"status":"generated","div":"<div xmlns=\"http://www.w3.org/1999/xhtml\"><p><b>identifier: </b>81365677998</p><p><b>name: </b>CENTRUM VOOR MEDISCHE ANALYSE</p><p><b>contact: </b>014/28.50.00</p><p><b>address: </b>Oud-Strijderslaan 199 2200 Herentals BE</p></div>"},"identifier":[{"use":"official","type":{"coding":[{"system":"http://terminology.hl7.org/CodeSystem/v2-0203","code":"MD","display":"Medical License number"}]},"system":"https://www.ehealth.fgov.be/standards/fhir/NamingSystem/nihdi","value":"81365677998"},{"use":"official","system":"https://economie.fgov.be/belac","value":"007-MED"}],"active":true,"type":[{"coding":[{"system":"https://www.ehealth.fgov.be/standards/fhir/CodeSystem/cd-hcparty","code":"orglaboratory"}]}],"name":"CENTRUM VOOR MEDISCHE ANALYSE","telecom":[{"system":"phone","value":"014/28.50.00","use":"work"},{"system":"fax","value":"014/22.56.08","use":"work"},{"system":"email","value":"info@cma.be","use":"work"},{"system":"url","value":"http://www.cma.be","use":"work"}],"address":[{"use":"work","type":"both","line":["Oud-Strijderslaan 199"],"city":"Herentals","postalCode":"2200","country":"BE"}]}},{"fullUrl":"Practitioner/8152","resource":{"resourceType":"Practitioner","id":"8152","meta":{"profile":["https://www.ehealth.fgov.be/standards/fhir/StructureDefinition/be-practitioner"]},"text":{"status":"generated","div":"<div xmlns=\"http://www.w3.org/1999/xhtml\"><p><b>identifier: </b>11849242860</p><p><b>name: </b>Waegemans Stefan</p><p><b>contact: </b>stefan.waegemans@cma.be</p><p><b>address: </b>Willekensmolenstraat 88/2 3500 Hasselt BE</p></div>"},"identifier":[{"use":"official","system":"https://www.ehealth.fgov.be/standards/fhir/NamingSystem/nihdi","value":"11849242860"}],"name":[{"use":"official","family":"Waegemans","given":["Stefan"],"prefix":["Dr."]}],"telecom":[{"system":"email","value":"stefan.waegemans@cma.be","use":"work"},{"system":"fax","value":"(+32)11/243291","use":"work"},{"system":"phone","value":"(+32)11/225288","use":"work"}],"address":[{"use":"work","type":"both","line":["Willekensmolenstraat 88/2"],"city":"Hasselt","postalCode":"3500","country":"BE"}],"gender":"unknown"}},{"fullUrl":"Practitioner/Responsible","resource":{"resourceType":"Practitioner","id":"Responsible","meta":{"profile":["https://www.ehealth.fgov.be/standards/fhir/StructureDefinition/be-practitioner"]},"text":{"status":"generated","div":"<div xmlns=\"http://www.w3.org/1999/xhtml\"><p><b>identifier: </b>68071432800</p><p><b>name: </b>Engelen Frans</p><p><b>contact: </b>014/28.50.00</p><p><b>address: </b>Oud-Strijderslaan 199 2200 Herentals BE</p></div>"},"identifier":[{"use":"official","system":"https://www.ehealth.fgov.be/standards/fhir/NamingSystem/nihdi","value":"68071432800"}],"name":[{"use":"official","family":"Engelen","given":["Frans"]}],"telecom":[{"system":"phone","value":"014/28.50.00","use":"work"}],"address":[{"use":"work","type":"both","line":["Oud-Strijderslaan 199"],"city":"Herentals","postalCode":"2200","country":"BE"}],"gender":"unknown"}},{"fullUrl":"Patient/6388178","resource":{"resourceType":"Patient","id":"6388178","meta":{"profile":["https://www.ehealth.fgov.be/standards/fhir/StructureDefinition/be-patient"]},"text":{"status":"generated","div":"<div xmlns=\"http://www.w3.org/1999/xhtml\"><p><b>identifier: </b>01482105560</p><p><b>name: </b>Cozo-Een Testvoornaam</p><p><b>gender: </b>male</p><p><b>birthDate: </b>1901-08-21</p><p><b>address: </b>De Pintelaan 185 9000 Gent BE</p></div>"},"identifier":[{"use":"official","system":"https://www.ehealth.fgov.be/standards/fhir/NamingSystem/ssin","value":"01482105560"}],"active":true,"name":[{"use":"official","family":"Cozo-Een","given":["Testvoornaam"]}],"address":[{"use":"home","type":"both","line":["De Pintelaan 185"],"city":"Gent","postalCode":"9000","country":"BE"}],"gender":"male","birthDate":"1901-08-21"}},{"fullUrl":"ServiceRequest/815333051","resource":{"resourceType":"ServiceRequest","id":"815333051","text":{"status":"generated","div":"<div xmlns=\"http://www.w3.org/1999/xhtml\"><p><b>id: </b>815333051</p><p><b>intent: </b>order</p><p><b>status: </b>active</p><p><b>category: </b>http://snomed.info/sct 108252007 Laboratory procedure</p><p><b>subject: </b>Patient/6388178</p><p><b>requester: </b>Practitioner/8152</p><p><b>authoredOn: </b>2021-12-07T09:26:00+01:00</p></div>"},"identifier":[{"system":"http://www.macsys.be/hl7/ServiceRequest","value":"815333051"}],"status":"active","intent":"order","category":[{"coding":[{"system":"http://snomed.info/sct","code":"108252007","display":"Laboratory procedure"}]}],"subject":{"reference":"Patient/6388178"},"priority":"routine","authoredOn":"2021-12-07T09:26:00+01:00","requester":{"reference":"Practitioner/8152"}}}]}