{"resourceType":"Bundle","type":"document","timestamp":"2021-12-20T15:30:35Z","identifier":{"system":"https://www.ehealth.fgov.be/lab-report/bundle-id","value":"81365677998.815333050.2"},"entry":[{
    "fullUrl": "Composition/815333050",
    "resource": {
        "resourceType": "Composition",
        "id": "815333050",
        "meta": {
            "profile": [
                "https://www.ehealth.fgov.be/standards/fhir/lab/StructureDefinition/be-laboratory-report-composition"
            ]
        },
        "text": {
            "status": "generated",
            "div": "<div xmlns=\"http://www.w3.org/1999/xhtml\"><p><b>id: </b>815333050</p><p><b>status: </b>final</p><p><b>type: </b>http://loinc.org 11502-2 Laboratory report</p><p><b>date: </b>2021-12-20T15:30:35+01:00</p><p><b>author: </b>Practitioner/Responsible</p><p><b>title: </b>Laboratory Report</p></div>"
        },
        "identifier": {
            "system": "http://www.macsys.be/hl7/Composition",
            "value": "815333050"
        },
        "status": "final",
        "type": {
            "coding": [
                {
                    "system": "http://loinc.org",
                    "code": "11502-2"
                }
            ],
            "text": "Laboratory report"
        },
        "subject": {
            "reference": "Patient/7165356"
        },
        "date": "2021-12-20T15:30:35+01:00",
        "author": [
            {
                "reference": "Practitioner/Responsible"
            }
        ],
        "title": "Laboratory Report",
        "section": [
            {
                "entry": [
                    {
                        "reference": "DiagnosticReport/815333050"
                    }
                ]
            }
        ]
    }
}
,{
    "fullUrl": "Specimen/001815333050",
    "resource": {
        "resourceType": "Specimen",
        "id": "001815333050",
        "meta": {
            "profile": [
                "https://www.ehealth.fgov.be/standards/fhir/lab/StructureDefinition/be-specimen-laboratory"
            ]
        },
        "text": {
            "status": "generated",
            "div": "<div xmlns=\"http://www.w3.org/1999/xhtml\"><p><b>id: </b>001815333050</p><p><b>status: </b>available</p><p><b>type: </b>http://terminology.hl7.org/CodeSystem/v2-0487 BLDV Blood venous EDTA-volbloed</p><p><b>receivedTime: </b>2021-12-01T15:32:37+01:00</p><p><b>collector: </b>Practitioner/69</p></div>"
        },
        "identifier": [
            {
                "system": "http://www.macsys.be/hl7/Specimen",
                "value": "001815333050"
            }
        ],
        "status": "available",
        "type": {
            "coding": [
                {
                    "system": "http://terminology.hl7.org/CodeSystem/v2-0487",
                    "code": "BLDV",
                    "display": "Blood venous"
                }
            ],
            "text": "EDTA-volbloed"
        },
        "subject": {
            "reference": "Patient/7165356"
        },
        "receivedTime": "2021-12-01T15:32:37+01:00",
        "collection": {
            "collectedDateTime": "2021-12-01T00:00:00+01:00",
            "collector": {
                "reference": "Practitioner/69"
            }
        }
    }
}
,{
    "fullUrl": "Specimen/002815333050",
    "resource": {
        "resourceType": "Specimen",
        "id": "002815333050",
        "meta": {
            "profile": [
                "https://www.ehealth.fgov.be/standards/fhir/lab/StructureDefinition/be-specimen-laboratory"
            ]
        },
        "text": {
            "status": "generated",
            "div": "<div xmlns=\"http://www.w3.org/1999/xhtml\"><p><b>id: </b>002815333050</p><p><b>status: </b>available</p><p><b>type: </b>http://terminology.hl7.org/CodeSystem/v2-0487 BLDV Blood venous Fluoride nuchter</p><p><b>receivedTime: </b>2021-12-01T15:32:37+01:00</p><p><b>collector: </b>Practitioner/69</p></div>"
        },
        "identifier": [
            {
                "system": "http://www.macsys.be/hl7/Specimen",
                "value": "002815333050"
            }
        ],
        "status": "available",
        "type": {
            "coding": [
                {
                    "system": "http://terminology.hl7.org/CodeSystem/v2-0487",
                    "code": "BLDV",
                    "display": "Blood venous"
                }
            ],
            "text": "Fluoride nuchter"
        },
        "subject": {
            "reference": "Patient/7165356"
        },
        "receivedTime": "2021-12-01T15:32:37+01:00",
        "collection": {
            "collectedDateTime": "2021-12-01T00:00:00+01:00",
            "collector": {
                "reference": "Practitioner/69"
            }
        }
    }
}
,{
    "fullUrl": "Specimen/003815333050",
    "resource": {
        "resourceType": "Specimen",
        "id": "003815333050",
        "meta": {
            "profile": [
                "https://www.ehealth.fgov.be/standards/fhir/lab/StructureDefinition/be-specimen-laboratory"
            ]
        },
        "text": {
            "status": "generated",
            "div": "<div xmlns=\"http://www.w3.org/1999/xhtml\"><p><b>id: </b>003815333050</p><p><b>status: </b>available</p><p><b>type: </b>http://terminology.hl7.org/CodeSystem/v2-0487 UR Urine Urine</p><p><b>receivedTime: </b>2021-12-01T15:32:37+01:00</p><p><b>collector: </b>Practitioner/69</p></div>"
        },
        "identifier": [
            {
                "system": "http://www.macsys.be/hl7/Specimen",
                "value": "003815333050"
            }
        ],
        "status": "available",
        "type": {
            "coding": [
                {
                    "system": "http://terminology.hl7.org/CodeSystem/v2-0487",
                    "code": "UR",
                    "display": "Urine"
                }
            ],
            "text": "Urine"
        },
        "subject": {
            "reference": "Patient/7165356"
        },
        "receivedTime": "2021-12-01T15:32:37+01:00",
        "collection": {
            "collectedDateTime": "2021-12-01T00:00:00+01:00",
            "collector": {
                "reference": "Practitioner/69"
            }
        }
    }
}
,{
    "fullUrl": "Specimen/004815333050",
    "resource": {
        "resourceType": "Specimen",
        "id": "004815333050",
        "meta": {
            "profile": [
                "https://www.ehealth.fgov.be/standards/fhir/lab/StructureDefinition/be-specimen-laboratory"
            ]
        },
        "text": {
            "status": "generated",
            "div": "<div xmlns=\"http://www.w3.org/1999/xhtml\"><p><b>id: </b>004815333050</p><p><b>status: </b>available</p><p><b>type: </b>http://terminology.hl7.org/CodeSystem/v2-0487 SNV Fluid, synovial (Joint fluid) Gewrichtsvocht</p><p><b>receivedTime: </b>2021-12-01T15:32:37+01:00</p><p><b>collector: </b>Practitioner/69</p></div>"
        },
        "identifier": [
            {
                "system": "http://www.macsys.be/hl7/Specimen",
                "value": "004815333050"
            }
        ],
        "status": "available",
        "type": {
            "coding": [
                {
                    "system": "http://terminology.hl7.org/CodeSystem/v2-0487",
                    "code": "SNV",
                    "display": "Fluid, synovial (Joint fluid)"
                }
            ],
            "text": "Gewrichtsvocht"
        },
        "subject": {
            "reference": "Patient/7165356"
        },
        "receivedTime": "2021-12-01T15:32:37+01:00",
        "collection": {
            "collectedDateTime": "2021-12-01T00:00:00+01:00",
            "collector": {
                "reference": "Practitioner/69"
            }
        }
    }
}
,{
    "fullUrl": "Specimen/005815333050",
    "resource": {
        "resourceType": "Specimen",
        "id": "005815333050",
        "meta": {
            "profile": [
                "https://www.ehealth.fgov.be/standards/fhir/lab/StructureDefinition/be-specimen-laboratory"
            ]
        },
        "text": {
            "status": "generated",
            "div": "<div xmlns=\"http://www.w3.org/1999/xhtml\"><p><b>id: </b>005815333050</p><p><b>status: </b>available</p><p><b>type: </b>http://terminology.hl7.org/CodeSystem/v2-0487 LSAC Fluid, Lumbar Sac Lumbaal vocht</p><p><b>receivedTime: </b>2021-12-01T15:32:37+01:00</p><p><b>collector: </b>Practitioner/69</p></div>"
        },
        "identifier": [
            {
                "system": "http://www.macsys.be/hl7/Specimen",
                "value": "005815333050"
            }
        ],
        "status": "available",
        "type": {
            "coding": [
                {
                    "system": "http://terminology.hl7.org/CodeSystem/v2-0487",
                    "code": "LSAC",
                    "display": "Fluid, Lumbar Sac"
                }
            ],
            "text": "Lumbaal vocht"
        },
        "subject": {
            "reference": "Patient/7165356"
        },
        "receivedTime": "2021-12-01T15:32:37+01:00",
        "collection": {
            "collectedDateTime": "2021-12-01T00:00:00+01:00",
            "collector": {
                "reference": "Practitioner/69"
            }
        }
    }
}
,{
    "fullUrl": "Specimen/006815333050",
    "resource": {
        "resourceType": "Specimen",
        "id": "006815333050",
        "meta": {
            "profile": [
                "https://www.ehealth.fgov.be/standards/fhir/lab/StructureDefinition/be-specimen-laboratory"
            ]
        },
        "text": {
            "status": "generated",
            "div": "<div xmlns=\"http://www.w3.org/1999/xhtml\"><p><b>id: </b>006815333050</p><p><b>status: </b>available</p><p><b>type: </b>http://terminology.hl7.org/CodeSystem/v2-0487 FGA Fluid, Abdomen Ascitesvocht</p><p><b>receivedTime: </b>2021-12-01T15:32:37+01:00</p><p><b>collector: </b>Practitioner/69</p></div>"
        },
        "identifier": [
            {
                "system": "http://www.macsys.be/hl7/Specimen",
                "value": "006815333050"
            }
        ],
        "status": "available",
        "type": {
            "coding": [
                {
                    "system": "http://terminology.hl7.org/CodeSystem/v2-0487",
                    "code": "FGA",
                    "display": "Fluid, Abdomen"
                }
            ],
            "text": "Ascitesvocht"
        },
        "subject": {
            "reference": "Patient/7165356"
        },
        "receivedTime": "2021-12-01T15:32:37+01:00",
        "collection": {
            "collectedDateTime": "2021-12-01T00:00:00+01:00",
            "collector": {
                "reference": "Practitioner/69"
            }
        }
    }
}
,{
    "fullUrl": "Observation/Observation.1.0.0.0",
    "resource": {
        "resourceType": "Observation",
        "id": "Observation.1.0.0.0",
        "meta": {
            "profile": [
                "https://www.ehealth.fgov.be/standards/fhir/lab/StructureDefinition/be-observation-laboratory"
            ]
        },
        "text": {
            "status": "generated",
            "div": "<div xmlns=\"http://www.w3.org/1999/xhtml\"><p><b>code: </b>HEMATOLOGIE</p><p><b>subject: </b>Patient/7165356</p><p><b>effective: </b>2021-12-01T00:00:00+01:00</p><p><b>performer: </b>Practitioner/Responsible</p><p><b>member: </b> // Observation/Observation.1.0.0.1 // </p></div>"
        },
        "status": "final",
        "code": {
            "text": "HEMATOLOGIE"
        },
        "subject": {
            "reference": "Patient/7165356"
        },
        "effectiveDateTime": "2021-12-01T00:00:00+01:00",
        "performer": [
            {
                "reference": "Practitioner/Responsible"
            }
        ],
        "hasMember": [
            {
                "reference": "Observation/Observation.1.0.0.1"
            }
        ]
    }
}
,{
    "fullUrl": "Observation/Observation.1.0.0.1",
    "resource": {
        "resourceType": "Observation",
        "id": "Observation.1.0.0.1",
        "meta": {
            "profile": [
                "https://www.ehealth.fgov.be/standards/fhir/lab/StructureDefinition/be-observation-laboratory"
            ]
        },
        "text": {
            "status": "generated",
            "div": "<div xmlns=\"http://www.w3.org/1999/xhtml\"><p><b>code: </b>http://loinc.org 789-8 Erytrocyten</p><p><b>subject: </b>Patient/7165356</p><p><b>effective: </b>2021-12-01T00:00:00+01:00</p><p><b>performer: </b>Practitioner/Responsible</p><p><b>result: </b>4,60 10*6/uL</p><p><b>specimen: </b>Specimen/001815333050</p><p><b>referenceRange: </b> // Low: 4,00 10*6/uL // High: 4,99 10*6/uL // </p></div>"
        },
        "status": "final",
        "code": {
            "coding": [
                {
                    "system": "http://loinc.org",
                    "code": "789-8"
                }
            ],
            "text": "Erytrocyten"
        },
        "subject": {
            "reference": "Patient/7165356"
        },
        "effectiveDateTime": "2021-12-01T00:00:00+01:00",
        "issued": "2021-12-01T15:33:16+01:00",
        "performer": [
            {
                "reference": "Practitioner/Responsible"
            }
        ],
        "valueQuantity": {
            "value": 4.60,
            "unit": "10*6/uL",
            "system": "http://unitsofmeasure.org",
            "code": "10*6/uL"
        },
        "specimen": {
            "reference": "Specimen/001815333050"
        },
        "referenceRange": [
            {
                "low": {
                    "value": 4.00,
                    "unit": "10*6/uL",
                    "system": "http://unitsofmeasure.org",
                    "code": "10*6/uL"
                },
                "high": {
                    "value": 4.99,
                    "unit": "10*6/uL",
                    "system": "http://unitsofmeasure.org",
                    "code": "10*6/uL"
                }
            }
        ]
    }
}
,{
    "fullUrl": "Observation/Observation.2.0.0.0",
    "resource": {
        "resourceType": "Observation",
        "id": "Observation.2.0.0.0",
        "meta": {
            "profile": [
                "https://www.ehealth.fgov.be/standards/fhir/lab/StructureDefinition/be-observation-laboratory"
            ]
        },
        "text": {
            "status": "generated",
            "div": "<div xmlns=\"http://www.w3.org/1999/xhtml\"><p><b>code: </b>KOOLHYDRATENMETABOLISME</p><p><b>subject: </b>Patient/7165356</p><p><b>effective: </b>2021-12-01T00:00:00+01:00</p><p><b>performer: </b>Practitioner/Responsible</p><p><b>member: </b> // Observation/Observation.2.0.0.1 // </p></div>"
        },
        "status": "final",
        "code": {
            "text": "KOOLHYDRATENMETABOLISME"
        },
        "subject": {
            "reference": "Patient/7165356"
        },
        "effectiveDateTime": "2021-12-01T00:00:00+01:00",
        "performer": [
            {
                "reference": "Practitioner/Responsible"
            }
        ],
        "hasMember": [
            {
                "reference": "Observation/Observation.2.0.0.1"
            }
        ]
    }
}
,{
    "fullUrl": "Observation/Observation.2.0.0.1",
    "resource": {
        "resourceType": "Observation",
        "id": "Observation.2.0.0.1",
        "meta": {
            "profile": [
                "https://www.ehealth.fgov.be/standards/fhir/lab/StructureDefinition/be-observation-laboratory"
            ]
        },
        "text": {
            "status": "generated",
            "div": "<div xmlns=\"http://www.w3.org/1999/xhtml\"><p><b>code: </b>http://loinc.org 53049-3 Glucose nuchter</p><p><b>subject: </b>Patient/7165356</p><p><b>effective: </b>2021-12-01T00:00:00+01:00</p><p><b>performer: </b>Practitioner/Responsible</p><p><b>result: </b>185 mg/dL</p><p><b>specimen: </b>Specimen/002815333050</p><p><b>interpretation: </b>HH</p><p><b>referenceRange: </b> // Low: 70 mg/dL // High: 99 mg/dL // </p></div>"
        },
        "status": "final",
        "code": {
            "coding": [
                {
                    "system": "http://loinc.org",
                    "code": "53049-3"
                }
            ],
            "text": "Glucose nuchter"
        },
        "subject": {
            "reference": "Patient/7165356"
        },
        "effectiveDateTime": "2021-12-01T00:00:00+01:00",
        "issued": "2021-12-01T15:33:48+01:00",
        "performer": [
            {
                "reference": "Practitioner/Responsible"
            }
        ],
        "valueQuantity": {
            "value": 185,
            "unit": "mg/dL",
            "system": "http://unitsofmeasure.org",
            "code": "mg/dL"
        },
        "interpretation": [
            {
                "coding": [
                    {
                        "system": "http://terminology.hl7.org/CodeSystem/v3-ObservationInterpretation",
                        "code": "HH"
                    }
                ]
            }
        ],
        "specimen": {
            "reference": "Specimen/002815333050"
        },
        "referenceRange": [
            {
                "low": {
                    "value": 70,
                    "unit": "mg/dL",
                    "system": "http://unitsofmeasure.org",
                    "code": "mg/dL"
                },
                "high": {
                    "value": 99,
                    "unit": "mg/dL",
                    "system": "http://unitsofmeasure.org",
                    "code": "mg/dL"
                }
            }
        ]
    }
}
,{
    "fullUrl": "Observation/Observation.3.0.0.0",
    "resource": {
        "resourceType": "Observation",
        "id": "Observation.3.0.0.0",
        "meta": {
            "profile": [
                "https://www.ehealth.fgov.be/standards/fhir/lab/StructureDefinition/be-observation-laboratory"
            ]
        },
        "text": {
            "status": "generated",
            "div": "<div xmlns=\"http://www.w3.org/1999/xhtml\"><p><b>code: </b>BIOCHEMIE URINE</p><p><b>subject: </b>Patient/7165356</p><p><b>effective: </b>2021-12-01T00:00:00+01:00</p><p><b>performer: </b>Practitioner/Responsible</p><p><b>member: </b> // Observation/Observation.3.0.0.1 // </p></div>"
        },
        "status": "final",
        "code": {
            "text": "BIOCHEMIE URINE"
        },
        "subject": {
            "reference": "Patient/7165356"
        },
        "effectiveDateTime": "2021-12-01T00:00:00+01:00",
        "performer": [
            {
                "reference": "Practitioner/Responsible"
            }
        ],
        "hasMember": [
            {
                "reference": "Observation/Observation.3.0.0.1"
            }
        ]
    }
}
,{
    "fullUrl": "Observation/Observation.3.0.0.1",
    "resource": {
        "resourceType": "Observation",
        "id": "Observation.3.0.0.1",
        "meta": {
            "profile": [
                "https://www.ehealth.fgov.be/standards/fhir/lab/StructureDefinition/be-observation-laboratory"
            ]
        },
        "text": {
            "status": "generated",
            "div": "<div xmlns=\"http://www.w3.org/1999/xhtml\"><p><b>code: </b>http://loinc.org 2350-7 Glucose</p><p><b>subject: </b>Patient/7165356</p><p><b>effective: </b>2021-12-01T00:00:00+01:00</p><p><b>performer: </b>Practitioner/Responsible</p><p><b>result: </b>26 mg/dL</p><p><b>specimen: </b>Specimen/003815333050</p><p><b>interpretation: </b>H</p><p><b>referenceRange: </b> // High: 15 mg/dL // </p></div>"
        },
        "status": "final",
        "code": {
            "coding": [
                {
                    "system": "http://loinc.org",
                    "code": "2350-7"
                }
            ],
            "text": "Glucose"
        },
        "subject": {
            "reference": "Patient/7165356"
        },
        "effectiveDateTime": "2021-12-01T00:00:00+01:00",
        "issued": "2021-12-01T15:34:15+01:00",
        "performer": [
            {
                "reference": "Practitioner/Responsible"
            }
        ],
        "valueQuantity": {
            "value": 26,
            "unit": "mg/dL",
            "system": "http://unitsofmeasure.org",
            "code": "mg/dL"
        },
        "interpretation": [
            {
                "coding": [
                    {
                        "system": "http://terminology.hl7.org/CodeSystem/v3-ObservationInterpretation",
                        "code": "H"
                    }
                ]
            }
        ],
        "specimen": {
            "reference": "Specimen/003815333050"
        },
        "referenceRange": [
            {
                "high": {
                    "value": 15,
                    "unit": "mg/dL",
                    "system": "http://unitsofmeasure.org",
                    "code": "mg/dL"
                }
            }
        ]
    }
}
,{
    "fullUrl": "Observation/Observation.4.0.0.0",
    "resource": {
        "resourceType": "Observation",
        "id": "Observation.4.0.0.0",
        "meta": {
            "profile": [
                "https://www.ehealth.fgov.be/standards/fhir/lab/StructureDefinition/be-observation-laboratory"
            ]
        },
        "text": {
            "status": "generated",
            "div": "<div xmlns=\"http://www.w3.org/1999/xhtml\"><p><b>code: </b>MICROBIOLOGIE URINE</p><p><b>subject: </b>Patient/7165356</p><p><b>effective: </b>2021-12-01T00:00:00+01:00</p><p><b>performer: </b>Practitioner/Responsible</p><p><b>member: </b> // Observation/Observation.4.0.0.1 // Observation/Observation.4.0.0.2 // Observation/Observation.4.0.0.3 // </p></div>"
        },
        "status": "final",
        "code": {
            "text": "MICROBIOLOGIE URINE"
        },
        "subject": {
            "reference": "Patient/7165356"
        },
        "effectiveDateTime": "2021-12-01T00:00:00+01:00",
        "performer": [
            {
                "reference": "Practitioner/Responsible"
            }
        ],
        "hasMember": [
            {
                "reference": "Observation/Observation.4.0.0.1"
            },
            {
                "reference": "Observation/Observation.4.0.0.2"
            },
            {
                "reference": "Observation/Observation.4.0.0.3"
            }
        ]
    }
}
,{
    "fullUrl": "Observation/Observation.4.0.0.1",
    "resource": {
        "resourceType": "Observation",
        "id": "Observation.4.0.0.1",
        "meta": {
            "profile": [
                "https://www.ehealth.fgov.be/standards/fhir/lab/StructureDefinition/be-observation-laboratory"
            ]
        },
        "text": {
            "status": "generated",
            "div": "<div xmlns=\"http://www.w3.org/1999/xhtml\"><p><b>code: </b>http://loinc.org 30405-5 Leukocyten</p><p><b>subject: </b>Patient/7165356</p><p><b>effective: </b>2021-12-01T00:00:00+01:00</p><p><b>performer: </b>Practitioner/Responsible</p><p><b>result: </b>23 /uL</p><p><b>specimen: </b>Specimen/003815333050</p><p><b>referenceRange: </b> // High: 25 /uL // </p></div>"
        },
        "status": "final",
        "code": {
            "coding": [
                {
                    "system": "http://loinc.org",
                    "code": "30405-5"
                }
            ],
            "text": "Leukocyten"
        },
        "subject": {
            "reference": "Patient/7165356"
        },
        "effectiveDateTime": "2021-12-01T00:00:00+01:00",
        "issued": "2021-12-01T15:34:25+01:00",
        "performer": [
            {
                "reference": "Practitioner/Responsible"
            }
        ],
        "valueQuantity": {
            "value": 23,
            "unit": "/uL",
            "system": "http://unitsofmeasure.org",
            "code": "/uL"
        },
        "specimen": {
            "reference": "Specimen/003815333050"
        },
        "referenceRange": [
            {
                "high": {
                    "value": 25,
                    "unit": "/uL",
                    "system": "http://unitsofmeasure.org",
                    "code": "/uL"
                }
            }
        ]
    }
}
,{
    "fullUrl": "Observation/Observation.4.0.0.2",
    "resource": {
        "resourceType": "Observation",
        "id": "Observation.4.0.0.2",
        "meta": {
            "profile": [
                "https://www.ehealth.fgov.be/standards/fhir/lab/StructureDefinition/be-observation-laboratory"
            ]
        },
        "text": {
            "status": "generated",
            "div": "<div xmlns=\"http://www.w3.org/1999/xhtml\"><p><b>code: </b>http://loinc.org 30391-7 Erytrocyten</p><p><b>subject: </b>Patient/7165356</p><p><b>effective: </b>2021-12-01T00:00:00+01:00</p><p><b>performer: </b>Practitioner/Responsible</p><p><b>result: </b>635 /uL</p><p><b>specimen: </b>Specimen/003815333050</p><p><b>interpretation: </b>H</p><p><b>referenceRange: </b> // High: 20 /uL // </p></div>"
        },
        "status": "final",
        "code": {
            "coding": [
                {
                    "system": "http://loinc.org",
                    "code": "30391-7"
                }
            ],
            "text": "Erytrocyten"
        },
        "subject": {
            "reference": "Patient/7165356"
        },
        "effectiveDateTime": "2021-12-01T00:00:00+01:00",
        "issued": "2021-12-01T15:34:31+01:00",
        "performer": [
            {
                "reference": "Practitioner/Responsible"
            }
        ],
        "valueQuantity": {
            "value": 635,
            "unit": "/uL",
            "system": "http://unitsofmeasure.org",
            "code": "/uL"
        },
        "interpretation": [
            {
                "coding": [
                    {
                        "system": "http://terminology.hl7.org/CodeSystem/v3-ObservationInterpretation",
                        "code": "H"
                    }
                ]
            }
        ],
        "specimen": {
            "reference": "Specimen/003815333050"
        },
        "referenceRange": [
            {
                "high": {
                    "value": 20,
                    "unit": "/uL",
                    "system": "http://unitsofmeasure.org",
                    "code": "/uL"
                }
            }
        ]
    }
}
,{
    "fullUrl": "Observation/Observation.4.0.0.3",
    "resource": {
        "resourceType": "Observation",
        "id": "Observation.4.0.0.3",
        "meta": {
            "profile": [
                "https://www.ehealth.fgov.be/standards/fhir/lab/StructureDefinition/be-observation-laboratory"
            ]
        },
        "text": {
            "status": "generated",
            "div": "<div xmlns=\"http://www.w3.org/1999/xhtml\"><p><b>code: </b>http://loinc.org 53974-2 Morfologie erytrocyten</p><p><b>subject: </b>Patient/7165356</p><p><b>effective: </b>2021-12-01T00:00:00+01:00</p><p><b>performer: </b>Practitioner/Responsible</p><p><b>result: </b>Isomorf (niet-glomerulair)</p><p><b>specimen: </b>Specimen/003815333050</p><p><b>referenceRange: </b> // Analyse slechts betrouwbaar indien uitgevoerd binnen een\r\npaar uur na lozing van +/- isotone urine. // </p></div>"
        },
        "status": "final",
        "code": {
            "coding": [
                {
                    "system": "http://loinc.org",
                    "code": "53974-2"
                }
            ],
            "text": "Morfologie erytrocyten"
        },
        "subject": {
            "reference": "Patient/7165356"
        },
        "effectiveDateTime": "2021-12-01T00:00:00+01:00",
        "issued": "2021-12-01T15:39:25+01:00",
        "performer": [
            {
                "reference": "Practitioner/Responsible"
            }
        ],
        "valueString": "Isomorf (niet-glomerulair)",
        "specimen": {
            "reference": "Specimen/003815333050"
        },
        "referenceRange": [
            {
                "text": "Analyse slechts betrouwbaar indien uitgevoerd binnen een\r\npaar uur na lozing van +/- isotone urine."
            }
        ]
    }
}
,{
    "fullUrl": "Observation/Observation.5.0.0.0",
    "resource": {
        "resourceType": "Observation",
        "id": "Observation.5.0.0.0",
        "meta": {
            "profile": [
                "https://www.ehealth.fgov.be/standards/fhir/lab/StructureDefinition/be-observation-laboratory"
            ]
        },
        "text": {
            "status": "generated",
            "div": "<div xmlns=\"http://www.w3.org/1999/xhtml\"><p><b>code: </b>PUNCTIEVOCHT</p><p><b>subject: </b>Patient/7165356</p><p><b>effective: </b>2021-12-01T00:00:00+01:00</p><p><b>performer: </b>Practitioner/Responsible</p><p><b>member: </b> // Observation/Observation.5.0.0.1 // Observation/Observation.5.0.0.2 // Observation/Observation.5.0.0.3 // Observation/Observation.5.0.0.4 // Observation/Observation.5.0.0.5 // </p></div>"
        },
        "status": "final",
        "code": {
            "text": "PUNCTIEVOCHT"
        },
        "subject": {
            "reference": "Patient/7165356"
        },
        "effectiveDateTime": "2021-12-01T00:00:00+01:00",
        "performer": [
            {
                "reference": "Practitioner/Responsible"
            }
        ],
        "hasMember": [
            {
                "reference": "Observation/Observation.5.0.0.1"
            },
            {
                "reference": "Observation/Observation.5.0.0.2"
            },
            {
                "reference": "Observation/Observation.5.0.0.3"
            },
            {
                "reference": "Observation/Observation.5.0.0.4"
            },
            {
                "reference": "Observation/Observation.5.0.0.5"
            }
        ]
    }
}
,{
    "fullUrl": "Observation/Observation.5.0.0.1",
    "resource": {
        "resourceType": "Observation",
        "id": "Observation.5.0.0.1",
        "meta": {
            "profile": [
                "https://www.ehealth.fgov.be/standards/fhir/lab/StructureDefinition/be-observation-laboratory"
            ]
        },
        "text": {
            "status": "generated",
            "div": "<div xmlns=\"http://www.w3.org/1999/xhtml\"><p><b>code: </b>http://loinc.org 39112-8 Herkomst</p><p><b>subject: </b>Patient/7165356</p><p><b>effective: </b>2021-12-01T00:00:00+01:00</p><p><b>performer: </b>Practitioner/Responsible</p><p><b>result: </b>Cerebrospinaal vocht</p><p><b>specimen: </b>Specimen/004815333050</p></div>"
        },
        "status": "final",
        "code": {
            "coding": [
                {
                    "system": "http://loinc.org",
                    "code": "39112-8"
                }
            ],
            "text": "Herkomst"
        },
        "subject": {
            "reference": "Patient/7165356"
        },
        "effectiveDateTime": "2021-12-01T00:00:00+01:00",
        "issued": "2021-12-01T15:32:55+01:00",
        "performer": [
            {
                "reference": "Practitioner/Responsible"
            }
        ],
        "valueString": "Cerebrospinaal vocht",
        "specimen": {
            "reference": "Specimen/004815333050"
        }
    }
}
,{
    "fullUrl": "Observation/Observation.5.0.0.2",
    "resource": {
        "resourceType": "Observation",
        "id": "Observation.5.0.0.2",
        "meta": {
            "profile": [
                "https://www.ehealth.fgov.be/standards/fhir/lab/StructureDefinition/be-observation-laboratory"
            ]
        },
        "text": {
            "status": "generated",
            "div": "<div xmlns=\"http://www.w3.org/1999/xhtml\"><p><b>code: </b>http://loinc.org 10333-3 Uitzicht</p><p><b>subject: </b>Patient/7165356</p><p><b>effective: </b>2021-12-01T00:00:00+01:00</p><p><b>performer: </b>Practitioner/Responsible</p><p><b>result: </b>Kleur: geel\r\nHelderheid: licht troebel</p><p><b>specimen: </b>Specimen/004815333050</p></div>"
        },
        "status": "final",
        "code": {
            "coding": [
                {
                    "system": "http://loinc.org",
                    "code": "10333-3"
                }
            ],
            "text": "Uitzicht"
        },
        "subject": {
            "reference": "Patient/7165356"
        },
        "effectiveDateTime": "2021-12-01T00:00:00+01:00",
        "issued": "2021-12-01T15:44:43+01:00",
        "performer": [
            {
                "reference": "Practitioner/Responsible"
            }
        ],
        "valueString": "Kleur: geel\r\nHelderheid: licht troebel",
        "specimen": {
            "reference": "Specimen/004815333050"
        }
    }
}
,{
    "fullUrl": "Observation/Observation.5.0.0.3",
    "resource": {
        "resourceType": "Observation",
        "id": "Observation.5.0.0.3",
        "meta": {
            "profile": [
                "https://www.ehealth.fgov.be/standards/fhir/lab/StructureDefinition/be-observation-laboratory"
            ]
        },
        "text": {
            "status": "generated",
            "div": "<div xmlns=\"http://www.w3.org/1999/xhtml\"><p><b>code: </b>http://loinc.org 26458-0 Erytrocyten</p><p><b>subject: </b>Patient/7165356</p><p><b>effective: </b>2021-12-01T00:00:00+01:00</p><p><b>performer: </b>Practitioner/Responsible</p><p><b>result: </b>&lt;1 /uL</p><p><b>specimen: </b>Specimen/004815333050</p></div>"
        },
        "status": "final",
        "code": {
            "coding": [
                {
                    "system": "http://loinc.org",
                    "code": "26458-0"
                }
            ],
            "text": "Erytrocyten"
        },
        "subject": {
            "reference": "Patient/7165356"
        },
        "effectiveDateTime": "2021-12-01T00:00:00+01:00",
        "issued": "2021-12-01T15:41:31+01:00",
        "performer": [
            {
                "reference": "Practitioner/Responsible"
            }
        ],
        "valueQuantity": {
            "value": 1,
            "comparator": "<",
            "unit": "/uL",
            "system": "http://unitsofmeasure.org",
            "code": "/uL"
        },
        "specimen": {
            "reference": "Specimen/004815333050"
        }
    }
}
,{
    "fullUrl": "Observation/Observation.5.0.0.4",
    "resource": {
        "resourceType": "Observation",
        "id": "Observation.5.0.0.4",
        "meta": {
            "profile": [
                "https://www.ehealth.fgov.be/standards/fhir/lab/StructureDefinition/be-observation-laboratory"
            ]
        },
        "text": {
            "status": "generated",
            "div": "<div xmlns=\"http://www.w3.org/1999/xhtml\"><p><b>code: </b>http://loinc.org 2342-4 Glucose</p><p><b>subject: </b>Patient/7165356</p><p><b>effective: </b>2021-12-01T00:00:00+01:00</p><p><b>performer: </b>Practitioner/Responsible</p><p><b>result: </b>156 mg/dL</p><p><b>specimen: </b>Specimen/005815333050</p><p><b>interpretation: </b>H</p><p><b>referenceRange: </b> // Low: 40 mg/dL // High: 70 mg/dL // </p></div>"
        },
        "status": "final",
        "code": {
            "coding": [
                {
                    "system": "http://loinc.org",
                    "code": "2342-4"
                }
            ],
            "text": "Glucose"
        },
        "subject": {
            "reference": "Patient/7165356"
        },
        "effectiveDateTime": "2021-12-01T00:00:00+01:00",
        "issued": "2021-12-01T15:41:54+01:00",
        "performer": [
            {
                "reference": "Practitioner/Responsible"
            }
        ],
        "valueQuantity": {
            "value": 156,
            "unit": "mg/dL",
            "system": "http://unitsofmeasure.org",
            "code": "mg/dL"
        },
        "interpretation": [
            {
                "coding": [
                    {
                        "system": "http://terminology.hl7.org/CodeSystem/v3-ObservationInterpretation",
                        "code": "H"
                    }
                ]
            }
        ],
        "specimen": {
            "reference": "Specimen/005815333050"
        },
        "referenceRange": [
            {
                "low": {
                    "value": 40,
                    "unit": "mg/dL",
                    "system": "http://unitsofmeasure.org",
                    "code": "mg/dL"
                },
                "high": {
                    "value": 70,
                    "unit": "mg/dL",
                    "system": "http://unitsofmeasure.org",
                    "code": "mg/dL"
                }
            }
        ]
    }
}
,{
    "fullUrl": "Observation/Observation.5.0.0.5",
    "resource": {
        "resourceType": "Observation",
        "id": "Observation.5.0.0.5",
        "meta": {
            "profile": [
                "https://www.ehealth.fgov.be/standards/fhir/lab/StructureDefinition/be-observation-laboratory"
            ]
        },
        "text": {
            "status": "generated",
            "div": "<div xmlns=\"http://www.w3.org/1999/xhtml\"><p><b>code: </b>http://loinc.org 72649-7 Ratio glucose vocht/serum</p><p><b>subject: </b>Patient/7165356</p><p><b>effective: </b>2021-12-01T00:00:00+01:00</p><p><b>performer: </b>Practitioner/Responsible</p><p><b>result: </b>0,8 {}</p><p><b>specimen: </b>Specimen/006815333050</p></div>"
        },
        "status": "final",
        "code": {
            "coding": [
                {
                    "system": "http://loinc.org",
                    "code": "72649-7"
                }
            ],
            "text": "Ratio glucose vocht/serum"
        },
        "subject": {
            "reference": "Patient/7165356"
        },
        "effectiveDateTime": "2021-12-01T00:00:00+01:00",
        "issued": "2021-12-01T15:41:54+01:00",
        "performer": [
            {
                "reference": "Practitioner/Responsible"
            }
        ],
        "valueQuantity": {
            "value": 0.8,
            "unit": "{}",
            "system": "http://unitsofmeasure.org",
            "code": "{}"
        },
        "specimen": {
            "reference": "Specimen/006815333050"
        }
    }
}
,{
    "fullUrl": "DiagnosticReport/815333050",
    "resource": {
        "resourceType": "DiagnosticReport",
        "id": "815333050",
        "meta": {
            "versionId": "2",
            "profile": [
                "https://www.ehealth.fgov.be/standards/fhir/lab/StructureDefinition/be-laboratory-report"
            ]
        },
        "language": "nl",
        "text": {
            "status": "generated",
            "div": "<div xmlns=\"http://www.w3.org/1999/xhtml\" xml:lang=\"nl\" lang=\"nl\"><p><b>id: </b>815333050</p><p><b>basedOn: </b>ServiceRequest/815333050</p><p><b>status: </b>final</p><p><b>category: </b>http://terminology.hl7.org/CodeSystem/v2-0074 LAB Laboratory</p><p><b>code: </b>http://loinc.org 11502-2 Laboratory report</p><p><b>subject: </b>Patient/7165356</p><p><b>effective: </b>2021-12-01T00:00:00+01:00</p><p><b>issued: </b>2021-12-20T15:30:35+01:00</p><p><b>performer: </b>Organization/81365677998</p><p><b>resultsInterpreter: </b>Practitioner/Responsible</p><p><b>specimen: </b> // Specimen/001815333050 // Specimen/002815333050 // Specimen/003815333050 // Specimen/004815333050 // Specimen/005815333050 // Specimen/006815333050 // </p><p><b>result: </b> // Observation/Observation.1.0.0.0 // Observation/Observation.2.0.0.0 // Observation/Observation.3.0.0.0 // Observation/Observation.4.0.0.0 // Observation/Observation.5.0.0.0 // </p></div>"
        },
        "identifier": [
            {
                "system": "https://www.ehealth.fgov.be/lab-report/diagnostic-report-id",
                "value": "81365677998.815333050"
            }
        ],
        "basedOn": [
            {
                "reference": "ServiceRequest/815333050"
            }
        ],
        "status": "final",
        "category": [
            {
                "coding": [
                    {
                        "system": "http://terminology.hl7.org/CodeSystem/v2-0074",
                        "code": "LAB",
                        "display": "Laboratory"
                    }
                ]
            }
        ],
        "code": {
            "coding": [
                {
                    "system": "http://loinc.org",
                    "code": "11502-2",
                    "display": "Laboratory report"
                }
            ]
        },
        "subject": {
            "reference": "Patient/7165356"
        },
        "effectiveDateTime": "2021-12-01T00:00:00+01:00",
        "issued": "2021-12-20T15:30:35+01:00",
        "performer": [
            {
                "reference": "Organization/81365677998"
            }
        ],
        "resultsInterpreter": [
            {
                "reference": "Practitioner/Responsible"
            }
        ],
        "specimen": [
            {
                "reference": "Specimen/001815333050"
            },
            {
                "reference": "Specimen/002815333050"
            },
            {
                "reference": "Specimen/003815333050"
            },
            {
                "reference": "Specimen/004815333050"
            },
            {
                "reference": "Specimen/005815333050"
            },
            {
                "reference": "Specimen/006815333050"
            }
        ],
        "result": [
            {
                "reference": "Observation/Observation.1.0.0.0"
            },
            {
                "reference": "Observation/Observation.2.0.0.0"
            },
            {
                "reference": "Observation/Observation.3.0.0.0"
            },
            {
                "reference": "Observation/Observation.4.0.0.0"
            },
            {
                "reference": "Observation/Observation.5.0.0.0"
            }
        ],
        "presentedForm": [
            {
                "contentType": "application/pdf",
                "data": "",
                "title": "PDF protocol"
            }
        ]
    }
}
,{
    "fullUrl": "Organization/81365677998",
    "resource": {
        "resourceType": "Organization",
        "id": "81365677998",
        "meta": {
            "profile": [
                "https://www.ehealth.fgov.be/standards/fhir/core/StructureDefinition/be-organization"
            ]
        },
        "text": {
            "status": "generated",
            "div": "<div xmlns=\"http://www.w3.org/1999/xhtml\"><p><b>identifier: </b>81365677998</p><p><b>name: </b>CENTRUM VOOR MEDISCHE ANALYSE</p><p><b>contact: </b>014/28.50.00</p><p><b>address: </b>Oud-Strijderslaan 199 2200 Herentals BE</p></div>"
        },
        "identifier": [
            {
                "use": "official",
                "type": {
                    "coding": [
                        {
                            "system": "http://terminology.hl7.org/CodeSystem/v2-0203",
                            "code": "MD",
                            "display": "Medical License number"
                        }
                    ]
                },
                "system": "https://www.ehealth.fgov.be/standards/fhir/core/NamingSystem/nihdi",
                "value": "81365677998"
            },
            {
                "use": "official",
                "system": "https://economie.fgov.be/belac",
                "value": "007-MED"
            }
        ],
        "active": true,
        "type": [
            {
                "coding": [
                    {
                        "system": "https://www.ehealth.fgov.be/standards/fhir/core/CodeSystem/cd-hcparty",
                        "code": "orglaboratory"
                    }
                ]
            }
        ],
        "name": "CENTRUM VOOR MEDISCHE ANALYSE",
        "telecom": [
            {
                "system": "phone",
                "value": "014/28.50.00",
                "use": "work"
            },
            {
                "system": "fax",
                "value": "014/22.56.08",
                "use": "work"
            },
            {
                "system": "email",
                "value": "info@cma.be",
                "use": "work"
            },
            {
                "system": "url",
                "value": "http://www.cma.be",
                "use": "work"
            }
        ],
        "address": [
            {
                "use": "work",
                "type": "both",
                "line": [
                    "Oud-Strijderslaan 199"
                ],
                "city": "Herentals",
                "postalCode": "2200",
                "country": "BE"
            }
        ]
    }
}
,{
    "fullUrl": "Practitioner/69",
    "resource": {
        "resourceType": "Practitioner",
        "id": "69",
        "meta": {
            "profile": [
                "https://www.ehealth.fgov.be/standards/fhir/core/StructureDefinition/be-practitioner"
            ]
        },
        "text": {
            "status": "generated",
            "div": "<div xmlns=\"http://www.w3.org/1999/xhtml\"><p><b>identifier: </b>10000007999</p><p><b>name: </b>Cma - Herentals Fhir</p><p><b>contact: </b>info@cma.be</p><p><b>address: </b>Oud-Strijderslaan 199 2200 Herentals BE</p></div>"
        },
        "identifier": [
            {
                "use": "official",
                "system": "https://www.ehealth.fgov.be/standards/fhir/core/NamingSystem/nihdi",
                "value": "10000007999"
            }
        ],
        "name": [
            {
                "use": "official",
                "family": "Cma - Herentals",
                "given": [
                    "Fhir"
                ],
                "prefix": [
                    "Dr."
                ]
            }
        ],
        "telecom": [
            {
                "system": "email",
                "value": "info@cma.be",
                "use": "work"
            },
            {
                "system": "fax",
                "value": "(+32)14/225608",
                "use": "work"
            },
            {
                "system": "phone",
                "value": "(+32)14/285000",
                "use": "work"
            }
        ],
        "address": [
            {
                "use": "work",
                "type": "both",
                "line": [
                    "Oud-Strijderslaan 199"
                ],
                "city": "Herentals",
                "postalCode": "2200",
                "country": "BE"
            }
        ],
        "gender": "unknown"
    }
}
,{
    "fullUrl": "Practitioner/Responsible",
    "resource": {
        "resourceType": "Practitioner",
        "id": "Responsible",
        "meta": {
            "profile": [
                "https://www.ehealth.fgov.be/standards/fhir/core/StructureDefinition/be-practitioner"
            ]
        },
        "text": {
            "status": "generated",
            "div": "<div xmlns=\"http://www.w3.org/1999/xhtml\"><p><b>identifier: </b>68071432800</p><p><b>name: </b>Engelen Frans</p><p><b>contact: </b>014/28.50.00</p><p><b>address: </b>Oud-Strijderslaan 199 2200 Herentals BE</p></div>"
        },
        "identifier": [
            {
                "use": "official",
                "system": "https://www.ehealth.fgov.be/standards/fhir/core/NamingSystem/nihdi",
                "value": "68071432800"
            }
        ],
        "name": [
            {
                "use": "official",
                "family": "Engelen",
                "given": [
                    "Frans"
                ]
            }
        ],
        "telecom": [
            {
                "system": "phone",
                "value": "014/28.50.00",
                "use": "work"
            }
        ],
        "address": [
            {
                "use": "work",
                "type": "both",
                "line": [
                    "Oud-Strijderslaan 199"
                ],
                "city": "Herentals",
                "postalCode": "2200",
                "country": "BE"
            }
        ],
        "gender": "unknown"
    }
}
,{
    "fullUrl": "Patient/7165356",
    "resource": {
        "resourceType": "Patient",
        "id": "7165356",
        "meta": {
            "profile": [
                "https://www.ehealth.fgov.be/standards/fhir/core/StructureDefinition/be-patient"
            ]
        },
        "text": {
            "status": "generated",
            "div": "<div xmlns=\"http://www.w3.org/1999/xhtml\"><p><b>identifier: </b>90010199893</p><p><b>name: </b>Lastname Firstname Female</p><p><b>gender: </b>female</p><p><b>birthDate: </b>1990-01-01</p><p><b>address: </b>Oud-Strijderslaan 199 2200 Herentals BE</p></div>"
        },
        "identifier": [
            {
                "use": "official",
                "system": "https://www.ehealth.fgov.be/standards/fhir/core/NamingSystem/ssin",
                "value": "90010199893"
            }
        ],
        "active": true,
        "name": [
            {
                "use": "official",
                "family": "Lastname",
                "given": [
                    "Firstname Female"
                ]
            }
        ],
        "address": [
            {
                "use": "home",
                "type": "both",
                "line": [
                    "Oud-Strijderslaan 199"
                ],
                "city": "Herentals",
                "postalCode": "2200",
                "country": "BE"
            }
        ],
        "gender": "female",
        "birthDate": "1990-01-01"
    }
}
,{
    "fullUrl": "ServiceRequest/815333050",
    "resource": {
        "resourceType": "ServiceRequest",
        "id": "815333050",
        "text": {
            "status": "generated",
            "div": "<div xmlns=\"http://www.w3.org/1999/xhtml\"><p><b>id: </b>815333050</p><p><b>intent: </b>order</p><p><b>status: </b>completed</p><p><b>category: </b>http://snomed.info/sct 108252007 Laboratory procedure</p><p><b>subject: </b>Patient/7165356</p><p><b>requester: </b>Practitioner/69</p><p><b>authoredOn: </b>2021-12-01T15:32:00+01:00</p></div>"
        },
        "identifier": [
            {
                "system": "http://www.macsys.be/hl7/ServiceRequest",
                "value": "815333050"
            }
        ],
        "status": "completed",
        "intent": "order",
        "category": [
            {
                "coding": [
                    {
                        "system": "http://snomed.info/sct",
                        "code": "108252007",
                        "display": "Laboratory procedure"
                    }
                ]
            }
        ],
        "subject": {
            "reference": "Patient/7165356"
        },
        "priority": "routine",
        "authoredOn": "2021-12-01T15:32:00+01:00",
        "requester": {
            "reference": "Practitioner/69"
        }
    }
}
]}