{"resourceType":"Bundle","type":"document","timestamp":"2021-12-09T12:41:03Z","identifier":{"system":"https://www.ehealth.fgov.be/lab-report/bundle-id","value":"81365677998.815333049.11"},"entry":[{"fullUrl":"Composition/815333049","resource":{"resourceType":"Composition","id":"815333049","meta":{"profile":["https://www.ehealth.fgov.be/standards/fhir/StructureDefinition/be-laboratory-report-composition"]},"text":{"status":"generated","div":"<div xmlns=\"http://www.w3.org/1999/xhtml\"><p><b>id: </b>815333049</p><p><b>status: </b>preliminary</p><p><b>type: </b>http://loinc.org 11502-2 Laboratory report</p><p><b>date: </b>2021-12-09T12:41:03+01:00</p><p><b>author: </b>Practitioner/Responsible</p><p><b>title: </b>Laboratory Report</p></div>"},"identifier":{"system":"http://www.macsys.be/hl7/Composition","value":"815333049"},"status":"preliminary","type":{"coding":[{"system":"http://loinc.org","code":"11502-2"}],"text":"Laboratory report"},"subject":{"reference":"Patient/6388178"},"date":"2021-12-09T12:41:03+01:00","author":[{"reference":"Practitioner/Responsible"}],"title":"Laboratory Report","section":[{"entry":[{"reference":"DiagnosticReport/815333049"}]}]}},{"fullUrl":"Specimen/002815333049","resource":{"resourceType":"Specimen","id":"002815333049","meta":{"profile":["https://www.ehealth.fgov.be/standards/fhir/StructureDefinition/be-specimen-laboratory"]},"text":{"status":"generated","div":"<div xmlns=\"http://www.w3.org/1999/xhtml\"><p><b>id: </b>002815333049</p><p><b>status: </b>available</p><p><b>type: </b>http://terminology.hl7.org/CodeSystem/v2-0487 BLDV Blood venous EDTA-volbloed</p><p><b>receivedTime: </b>2021-12-07T09:09:10+01:00</p><p><b>collector: </b>Practitioner/8152</p></div>"},"identifier":[{"system":"http://www.macsys.be/hl7/Specimen","value":"002815333049"}],"status":"available","type":{"coding":[{"system":"http://terminology.hl7.org/CodeSystem/v2-0487","code":"BLDV","display":"Blood venous"}],"text":"EDTA-volbloed"},"subject":{"reference":"Patient/6388178"},"receivedTime":"2021-12-07T09:09:10+01:00","collection":{"collectedDateTime":"2021-12-01T00:00:00+01:00","collector":{"reference":"Practitioner/8152"}}}},{"fullUrl":"Specimen/001815333049","resource":{"resourceType":"Specimen","id":"001815333049","meta":{"profile":["https://www.ehealth.fgov.be/standards/fhir/StructureDefinition/be-specimen-laboratory"]},"text":{"status":"generated","div":"<div xmlns=\"http://www.w3.org/1999/xhtml\"><p><b>id: </b>001815333049</p><p><b>status: </b>available</p><p><b>type: </b>http://terminology.hl7.org/CodeSystem/v2-0487 SER Serum Serum</p><p><b>receivedTime: </b>2021-12-07T09:09:10+01:00</p><p><b>collector: </b>Practitioner/8152</p></div>"},"identifier":[{"system":"http://www.macsys.be/hl7/Specimen","value":"001815333049"}],"status":"available","type":{"coding":[{"system":"http://terminology.hl7.org/CodeSystem/v2-0487","code":"SER","display":"Serum"}],"text":"Serum"},"subject":{"reference":"Patient/6388178"},"receivedTime":"2021-12-07T09:09:10+01:00","collection":{"collectedDateTime":"2021-12-01T00:00:00+01:00","collector":{"reference":"Practitioner/8152"}}}},{"fullUrl":"Observation/Observation.1.0.0.0","resource":{"resourceType":"Observation","id":"Observation.1.0.0.0","meta":{"profile":["https://www.ehealth.fgov.be/standards/fhir/StructureDefinition/be-observation-laboratory"]},"text":{"status":"generated","div":"<div xmlns=\"http://www.w3.org/1999/xhtml\"><p><b>code: </b>HEMATOLOGIE</p><p><b>subject: </b>Patient/6388178</p><p><b>effective: </b>2021-12-01T00:00:00+01:00</p><p><b>performer: </b>Practitioner/Responsible</p><p><b>member: </b> // Observation/Observation.1.0.0.1 // Observation/Observation.1.0.0.2 // Observation/Observation.1.0.0.3 // Observation/Observation.1.0.0.4 // Observation/Observation.1.0.0.5 // Observation/Observation.1.0.0.6 // Observation/Observation.1.0.0.7 // Observation/Observation.1.1.0.0 // Observation/Observation.1.2.0.0 // Observation/Observation.1.3.0.1 // Observation/Observation.1.3.0.2 // </p></div>"},"status":"final","code":{"text":"HEMATOLOGIE"},"subject":{"reference":"Patient/6388178"},"effectiveDateTime":"2021-12-01T00:00:00+01:00","performer":[{"reference":"Practitioner/Responsible"}],"hasMember":[{"reference":"Observation/Observation.1.0.0.1"},{"reference":"Observation/Observation.1.0.0.2"},{"reference":"Observation/Observation.1.0.0.3"},{"reference":"Observation/Observation.1.0.0.4"},{"reference":"Observation/Observation.1.0.0.5"},{"reference":"Observation/Observation.1.0.0.6"},{"reference":"Observation/Observation.1.0.0.7"},{"reference":"Observation/Observation.1.1.0.0"},{"reference":"Observation/Observation.1.2.0.0"},{"reference":"Observation/Observation.1.3.0.1"},{"reference":"Observation/Observation.1.3.0.2"}]}},{"fullUrl":"Observation/Observation.1.0.0.1","resource":{"resourceType":"Observation","id":"Observation.1.0.0.1","meta":{"profile":["https://www.ehealth.fgov.be/standards/fhir/StructureDefinition/be-observation-laboratory"]},"text":{"status":"generated","div":"<div xmlns=\"http://www.w3.org/1999/xhtml\"><p><b>code: </b>http://loinc.org 789-8 Erytrocyten</p><p><b>subject: </b>Patient/6388178</p><p><b>effective: </b>2021-12-01T00:00:00+01:00</p><p><b>performer: </b>Practitioner/Responsible</p><p><b>result: </b>4,51 10*6/uL</p><p><b>specimen: </b>Specimen/002815333049</p><p><b>note: </b>Analyse gedekt door accreditatie.</p><p><b>referenceRange: </b> // Low: 4,35 10*6/uL // High: 5,61 10*6/uL // </p></div>"},"status":"final","code":{"coding":[{"system":"http://loinc.org","code":"789-8"}],"text":"Erytrocyten"},"subject":{"reference":"Patient/6388178"},"effectiveDateTime":"2021-12-01T00:00:00+01:00","issued":"2021-12-07T09:09:38+01:00","performer":[{"reference":"Practitioner/Responsible"}],"valueQuantity":{"value":4.51,"unit":"10*6/uL","system":"http://unitsofmeasure.org","code":"10*6/uL"},"note":[{"text":"Analyse gedekt door accreditatie."}],"specimen":{"reference":"Specimen/002815333049"},"referenceRange":[{"low":{"value":4.35,"unit":"10*6/uL","system":"http://unitsofmeasure.org","code":"10*6/uL"},"high":{"value":5.61,"unit":"10*6/uL","system":"http://unitsofmeasure.org","code":"10*6/uL"}}]}},{"fullUrl":"Observation/Observation.1.0.0.2","resource":{"resourceType":"Observation","id":"Observation.1.0.0.2","meta":{"profile":["https://www.ehealth.fgov.be/standards/fhir/StructureDefinition/be-observation-laboratory"]},"text":{"status":"generated","div":"<div xmlns=\"http://www.w3.org/1999/xhtml\"><p><b>code: </b>http://loinc.org 718-7 Hemoglobine</p><p><b>subject: </b>Patient/6388178</p><p><b>effective: </b>2021-12-01T00:00:00+01:00</p><p><b>performer: </b>Practitioner/Responsible</p><p><b>result: </b>14,9 g/dL</p><p><b>specimen: </b>Specimen/002815333049</p><p><b>note: </b>Analyse gedekt door accreditatie.</p><p><b>referenceRange: </b> // Low: 13,4 g/dL // High: 16,5 g/dL // </p></div>"},"status":"final","code":{"coding":[{"system":"http://loinc.org","code":"718-7"}],"text":"Hemoglobine"},"subject":{"reference":"Patient/6388178"},"effectiveDateTime":"2021-12-01T00:00:00+01:00","issued":"2021-12-07T09:09:45+01:00","performer":[{"reference":"Practitioner/Responsible"}],"valueQuantity":{"value":14.9,"unit":"g/dL","system":"http://unitsofmeasure.org","code":"g/dL"},"note":[{"text":"Analyse gedekt door accreditatie."}],"specimen":{"reference":"Specimen/002815333049"},"referenceRange":[{"low":{"value":13.4,"unit":"g/dL","system":"http://unitsofmeasure.org","code":"g/dL"},"high":{"value":16.5,"unit":"g/dL","system":"http://unitsofmeasure.org","code":"g/dL"}}]}},{"fullUrl":"Observation/Observation.1.0.0.3","resource":{"resourceType":"Observation","id":"Observation.1.0.0.3","meta":{"profile":["https://www.ehealth.fgov.be/standards/fhir/StructureDefinition/be-observation-laboratory"]},"text":{"status":"generated","div":"<div xmlns=\"http://www.w3.org/1999/xhtml\"><p><b>code: </b>http://loinc.org 4544-3 Hematocriet</p><p><b>subject: </b>Patient/6388178</p><p><b>effective: </b>2021-12-01T00:00:00+01:00</p><p><b>performer: </b>Practitioner/Responsible</p><p><b>result: </b>41,1 %</p><p><b>specimen: </b>Specimen/002815333049</p><p><b>note: </b>Analyse gedekt door accreditatie.</p><p><b>referenceRange: </b> // Low: 39,7 % // High: 49,3 % // </p></div>"},"status":"final","code":{"coding":[{"system":"http://loinc.org","code":"4544-3"}],"text":"Hematocriet"},"subject":{"reference":"Patient/6388178"},"effectiveDateTime":"2021-12-01T00:00:00+01:00","issued":"2021-12-07T09:09:51+01:00","performer":[{"reference":"Practitioner/Responsible"}],"valueQuantity":{"value":41.1,"unit":"%","system":"http://unitsofmeasure.org","code":"%"},"note":[{"text":"Analyse gedekt door accreditatie."}],"specimen":{"reference":"Specimen/002815333049"},"referenceRange":[{"low":{"value":39.7,"unit":"%","system":"http://unitsofmeasure.org","code":"%"},"high":{"value":49.3,"unit":"%","system":"http://unitsofmeasure.org","code":"%"}}]}},{"fullUrl":"Observation/Observation.1.0.0.4","resource":{"resourceType":"Observation","id":"Observation.1.0.0.4","meta":{"profile":["https://www.ehealth.fgov.be/standards/fhir/StructureDefinition/be-observation-laboratory"]},"text":{"status":"generated","div":"<div xmlns=\"http://www.w3.org/1999/xhtml\"><p><b>code: </b>http://loinc.org 787-2 MCV</p><p><b>subject: </b>Patient/6388178</p><p><b>effective: </b>2021-12-01T00:00:00+01:00</p><p><b>performer: </b>Practitioner/Responsible</p><p><b>result: </b>87,9 fL</p><p><b>specimen: </b>Specimen/002815333049</p><p><b>note: </b>Analyse gedekt door accreditatie.</p><p><b>referenceRange: </b> // Low: 83,2 fL // High: 96,0 fL // </p></div>"},"status":"final","code":{"coding":[{"system":"http://loinc.org","code":"787-2"}],"text":"MCV"},"subject":{"reference":"Patient/6388178"},"effectiveDateTime":"2021-12-01T00:00:00+01:00","issued":"2021-12-07T09:09:57+01:00","performer":[{"reference":"Practitioner/Responsible"}],"valueQuantity":{"value":87.9,"unit":"fL","system":"http://unitsofmeasure.org","code":"fL"},"note":[{"text":"Analyse gedekt door accreditatie."}],"specimen":{"reference":"Specimen/002815333049"},"referenceRange":[{"low":{"value":83.2,"unit":"fL","system":"http://unitsofmeasure.org","code":"fL"},"high":{"value":96.0,"unit":"fL","system":"http://unitsofmeasure.org","code":"fL"}}]}},{"fullUrl":"Observation/Observation.1.0.0.5","resource":{"resourceType":"Observation","id":"Observation.1.0.0.5","meta":{"profile":["https://www.ehealth.fgov.be/standards/fhir/StructureDefinition/be-observation-laboratory"]},"text":{"status":"generated","div":"<div xmlns=\"http://www.w3.org/1999/xhtml\"><p><b>code: </b>http://loinc.org 785-6 MCH</p><p><b>subject: </b>Patient/6388178</p><p><b>effective: </b>2021-12-01T00:00:00+01:00</p><p><b>performer: </b>Practitioner/Responsible</p><p><b>result: </b>30,2 pg</p><p><b>specimen: </b>Specimen/002815333049</p><p><b>note: </b>Analyse gedekt door accreditatie.</p><p><b>referenceRange: </b> // Low: 27,8 pg // High: 32,5 pg // </p></div>"},"status":"final","code":{"coding":[{"system":"http://loinc.org","code":"785-6"}],"text":"MCH"},"subject":{"reference":"Patient/6388178"},"effectiveDateTime":"2021-12-01T00:00:00+01:00","issued":"2021-12-07T09:10:01+01:00","performer":[{"reference":"Practitioner/Responsible"}],"valueQuantity":{"value":30.2,"unit":"pg","system":"http://unitsofmeasure.org","code":"pg"},"note":[{"text":"Analyse gedekt door accreditatie."}],"specimen":{"reference":"Specimen/002815333049"},"referenceRange":[{"low":{"value":27.8,"unit":"pg","system":"http://unitsofmeasure.org","code":"pg"},"high":{"value":32.5,"unit":"pg","system":"http://unitsofmeasure.org","code":"pg"}}]}},{"fullUrl":"Observation/Observation.1.0.0.6","resource":{"resourceType":"Observation","id":"Observation.1.0.0.6","meta":{"profile":["https://www.ehealth.fgov.be/standards/fhir/StructureDefinition/be-observation-laboratory"]},"text":{"status":"generated","div":"<div xmlns=\"http://www.w3.org/1999/xhtml\"><p><b>code: </b>http://loinc.org 786-4 MCHC</p><p><b>subject: </b>Patient/6388178</p><p><b>effective: </b>2021-12-01T00:00:00+01:00</p><p><b>performer: </b>Practitioner/Responsible</p><p><b>result: </b>35,0 g/dL</p><p><b>specimen: </b>Specimen/002815333049</p><p><b>note: </b>Analyse gedekt door accreditatie.</p><p><b>referenceRange: </b> // Low: 32,3 g/dL // High: 35,7 g/dL // </p></div>"},"status":"final","code":{"coding":[{"system":"http://loinc.org","code":"786-4"}],"text":"MCHC"},"subject":{"reference":"Patient/6388178"},"effectiveDateTime":"2021-12-01T00:00:00+01:00","issued":"2021-12-07T09:10:05+01:00","performer":[{"reference":"Practitioner/Responsible"}],"valueQuantity":{"value":35.0,"unit":"g/dL","system":"http://unitsofmeasure.org","code":"g/dL"},"note":[{"text":"Analyse gedekt door accreditatie."}],"specimen":{"reference":"Specimen/002815333049"},"referenceRange":[{"low":{"value":32.3,"unit":"g/dL","system":"http://unitsofmeasure.org","code":"g/dL"},"high":{"value":35.7,"unit":"g/dL","system":"http://unitsofmeasure.org","code":"g/dL"}}]}},{"fullUrl":"Observation/Observation.1.0.0.7","resource":{"resourceType":"Observation","id":"Observation.1.0.0.7","meta":{"profile":["https://www.ehealth.fgov.be/standards/fhir/StructureDefinition/be-observation-laboratory"]},"text":{"status":"generated","div":"<div xmlns=\"http://www.w3.org/1999/xhtml\"><p><b>code: </b>http://loinc.org 6690-2 Leukocyten</p><p><b>subject: </b>Patient/6388178</p><p><b>effective: </b>2021-12-01T00:00:00+01:00</p><p><b>performer: </b>Practitioner/Responsible</p><p><b>result: </b>13120 /uL</p><p><b>specimen: </b>Specimen/002815333049</p><p><b>interpretation: </b>H</p><p><b>note: </b>Analyse gedekt door accreditatie.</p><p><b>referenceRange: </b> // Low: 3720 /uL // High: 10540 /uL // </p></div>"},"status":"final","code":{"coding":[{"system":"http://loinc.org","code":"6690-2"}],"text":"Leukocyten"},"subject":{"reference":"Patient/6388178"},"effectiveDateTime":"2021-12-01T00:00:00+01:00","issued":"2021-12-07T09:10:08+01:00","performer":[{"reference":"Practitioner/Responsible"}],"valueQuantity":{"value":13120,"unit":"/uL","system":"http://unitsofmeasure.org","code":"/uL"},"interpretation":[{"coding":[{"system":"http://terminology.hl7.org/CodeSystem/v3-ObservationInterpretation","code":"H"}]}],"note":[{"text":"Analyse gedekt door accreditatie."}],"specimen":{"reference":"Specimen/002815333049"},"referenceRange":[{"low":{"value":3720,"unit":"/uL","system":"http://unitsofmeasure.org","code":"/uL"},"high":{"value":10540,"unit":"/uL","system":"http://unitsofmeasure.org","code":"/uL"}}]}},{"fullUrl":"Observation/Observation.1.1.0.0","resource":{"resourceType":"Observation","id":"Observation.1.1.0.0","meta":{"profile":["https://www.ehealth.fgov.be/standards/fhir/StructureDefinition/be-observation-laboratory"]},"text":{"status":"generated","div":"<div xmlns=\"http://www.w3.org/1999/xhtml\"><p><b>code: </b>Formule</p><p><b>subject: </b>Patient/6388178</p><p><b>effective: </b>2021-12-01T00:00:00+01:00</p><p><b>performer: </b>Practitioner/Responsible</p><p><b>member: </b> // Observation/Observation.1.1.0.1 // Observation/Observation.1.1.0.2 // Observation/Observation.1.1.0.3 // Observation/Observation.1.1.0.4 // Observation/Observation.1.1.0.5 // </p></div>"},"status":"final","code":{"text":"Formule"},"subject":{"reference":"Patient/6388178"},"effectiveDateTime":"2021-12-01T00:00:00+01:00","performer":[{"reference":"Practitioner/Responsible"}],"hasMember":[{"reference":"Observation/Observation.1.1.0.1"},{"reference":"Observation/Observation.1.1.0.2"},{"reference":"Observation/Observation.1.1.0.3"},{"reference":"Observation/Observation.1.1.0.4"},{"reference":"Observation/Observation.1.1.0.5"}]}},{"fullUrl":"Observation/Observation.1.1.0.1","resource":{"resourceType":"Observation","id":"Observation.1.1.0.1","meta":{"profile":["https://www.ehealth.fgov.be/standards/fhir/StructureDefinition/be-observation-laboratory"]},"text":{"status":"generated","div":"<div xmlns=\"http://www.w3.org/1999/xhtml\"><p><b>code: </b>http://loinc.org 26511-6 Neutrofiele segmenten</p><p><b>subject: </b>Patient/6388178</p><p><b>effective: </b>2021-12-01T00:00:00+01:00</p><p><b>performer: </b>Practitioner/Responsible</p><p><b>result: </b>68,1 %</p><p><b>specimen: </b>Specimen/002815333049</p><p><b>note: </b>Analyse gedekt door accreditatie.</p><p><b>referenceRange: </b> // Low: 39,2 % // High: 72,9 % // </p></div>"},"status":"final","code":{"coding":[{"system":"http://loinc.org","code":"26511-6"}],"text":"Neutrofiele segmenten"},"subject":{"reference":"Patient/6388178"},"effectiveDateTime":"2021-12-01T00:00:00+01:00","issued":"2021-12-07T09:10:17+01:00","performer":[{"reference":"Practitioner/Responsible"}],"valueQuantity":{"value":68.1,"unit":"%","system":"http://unitsofmeasure.org","code":"%"},"note":[{"text":"Analyse gedekt door accreditatie."}],"specimen":{"reference":"Specimen/002815333049"},"referenceRange":[{"low":{"value":39.2,"unit":"%","system":"http://unitsofmeasure.org","code":"%"},"high":{"value":72.9,"unit":"%","system":"http://unitsofmeasure.org","code":"%"}}]}},{"fullUrl":"Observation/Observation.1.1.0.2","resource":{"resourceType":"Observation","id":"Observation.1.1.0.2","meta":{"profile":["https://www.ehealth.fgov.be/standards/fhir/StructureDefinition/be-observation-laboratory"]},"text":{"status":"generated","div":"<div xmlns=\"http://www.w3.org/1999/xhtml\"><p><b>code: </b>http://loinc.org 26450-7 Eosinofielen</p><p><b>subject: </b>Patient/6388178</p><p><b>effective: </b>2021-12-01T00:00:00+01:00</p><p><b>performer: </b>Practitioner/Responsible</p><p><b>result: </b>11,9 %</p><p><b>specimen: </b>Specimen/002815333049</p><p><b>interpretation: </b>H</p><p><b>note: </b>Analyse gedekt door accreditatie.</p><p><b>referenceRange: </b> // High: 8,4 % // </p></div>"},"status":"final","code":{"coding":[{"system":"http://loinc.org","code":"26450-7"}],"text":"Eosinofielen"},"subject":{"reference":"Patient/6388178"},"effectiveDateTime":"2021-12-01T00:00:00+01:00","issued":"2021-12-07T09:10:28+01:00","performer":[{"reference":"Practitioner/Responsible"}],"valueQuantity":{"value":11.9,"unit":"%","system":"http://unitsofmeasure.org","code":"%"},"interpretation":[{"coding":[{"system":"http://terminology.hl7.org/CodeSystem/v3-ObservationInterpretation","code":"H"}]}],"note":[{"text":"Analyse gedekt door accreditatie."}],"specimen":{"reference":"Specimen/002815333049"},"referenceRange":[{"high":{"value":8.4,"unit":"%","system":"http://unitsofmeasure.org","code":"%"}}]}},{"fullUrl":"Observation/Observation.1.1.0.3","resource":{"resourceType":"Observation","id":"Observation.1.1.0.3","meta":{"profile":["https://www.ehealth.fgov.be/standards/fhir/StructureDefinition/be-observation-laboratory"]},"text":{"status":"generated","div":"<div xmlns=\"http://www.w3.org/1999/xhtml\"><p><b>code: </b>http://loinc.org 30180-4 Basofielen</p><p><b>subject: </b>Patient/6388178</p><p><b>effective: </b>2021-12-01T00:00:00+01:00</p><p><b>performer: </b>Practitioner/Responsible</p><p><b>result: </b>0,4 %</p><p><b>specimen: </b>Specimen/002815333049</p><p><b>note: </b>Analyse gedekt door accreditatie.</p><p><b>referenceRange: </b> // High: 1,5 % // </p></div>"},"status":"final","code":{"coding":[{"system":"http://loinc.org","code":"30180-4"}],"text":"Basofielen"},"subject":{"reference":"Patient/6388178"},"effectiveDateTime":"2021-12-01T00:00:00+01:00","issued":"2021-12-07T09:10:33+01:00","performer":[{"reference":"Practitioner/Responsible"}],"valueQuantity":{"value":0.4,"unit":"%","system":"http://unitsofmeasure.org","code":"%"},"note":[{"text":"Analyse gedekt door accreditatie."}],"specimen":{"reference":"Specimen/002815333049"},"referenceRange":[{"high":{"value":1.5,"unit":"%","system":"http://unitsofmeasure.org","code":"%"}}]}},{"fullUrl":"Observation/Observation.1.1.0.4","resource":{"resourceType":"Observation","id":"Observation.1.1.0.4","meta":{"profile":["https://www.ehealth.fgov.be/standards/fhir/StructureDefinition/be-observation-laboratory"]},"text":{"status":"generated","div":"<div xmlns=\"http://www.w3.org/1999/xhtml\"><p><b>code: </b>http://loinc.org 26478-8 Lymfocyten</p><p><b>subject: </b>Patient/6388178</p><p><b>effective: </b>2021-12-01T00:00:00+01:00</p><p><b>performer: </b>Practitioner/Responsible</p><p><b>result: </b>12,8 %</p><p><b>specimen: </b>Specimen/002815333049</p><p><b>interpretation: </b>L</p><p><b>note: </b>Analyse gedekt door accreditatie.</p><p><b>referenceRange: </b> // Low: 15,7 % // High: 47,0 % // </p></div>"},"status":"final","code":{"coding":[{"system":"http://loinc.org","code":"26478-8"}],"text":"Lymfocyten"},"subject":{"reference":"Patient/6388178"},"effectiveDateTime":"2021-12-01T00:00:00+01:00","issued":"2021-12-07T09:10:42+01:00","performer":[{"reference":"Practitioner/Responsible"}],"valueQuantity":{"value":12.8,"unit":"%","system":"http://unitsofmeasure.org","code":"%"},"interpretation":[{"coding":[{"system":"http://terminology.hl7.org/CodeSystem/v3-ObservationInterpretation","code":"L"}]}],"note":[{"text":"Analyse gedekt door accreditatie."}],"specimen":{"reference":"Specimen/002815333049"},"referenceRange":[{"low":{"value":15.7,"unit":"%","system":"http://unitsofmeasure.org","code":"%"},"high":{"value":47.0,"unit":"%","system":"http://unitsofmeasure.org","code":"%"}}]}},{"fullUrl":"Observation/Observation.1.1.0.5","resource":{"resourceType":"Observation","id":"Observation.1.1.0.5","meta":{"profile":["https://www.ehealth.fgov.be/standards/fhir/StructureDefinition/be-observation-laboratory"]},"text":{"status":"generated","div":"<div xmlns=\"http://www.w3.org/1999/xhtml\"><p><b>code: </b>http://loinc.org 26485-3 Monocyten</p><p><b>subject: </b>Patient/6388178</p><p><b>effective: </b>2021-12-01T00:00:00+01:00</p><p><b>performer: </b>Practitioner/Responsible</p><p><b>result: </b>6,8 %</p><p><b>specimen: </b>Specimen/002815333049</p><p><b>note: </b>Analyse gedekt door accreditatie.</p><p><b>referenceRange: </b> // Low: 5,7 % // High: 13,7 % // </p></div>"},"status":"final","code":{"coding":[{"system":"http://loinc.org","code":"26485-3"}],"text":"Monocyten"},"subject":{"reference":"Patient/6388178"},"effectiveDateTime":"2021-12-01T00:00:00+01:00","issued":"2021-12-07T09:10:46+01:00","performer":[{"reference":"Practitioner/Responsible"}],"valueQuantity":{"value":6.8,"unit":"%","system":"http://unitsofmeasure.org","code":"%"},"note":[{"text":"Analyse gedekt door accreditatie."}],"specimen":{"reference":"Specimen/002815333049"},"referenceRange":[{"low":{"value":5.7,"unit":"%","system":"http://unitsofmeasure.org","code":"%"},"high":{"value":13.7,"unit":"%","system":"http://unitsofmeasure.org","code":"%"}}]}},{"fullUrl":"Observation/Observation.1.2.0.0","resource":{"resourceType":"Observation","id":"Observation.1.2.0.0","meta":{"profile":["https://www.ehealth.fgov.be/standards/fhir/StructureDefinition/be-observation-laboratory"]},"text":{"status":"generated","div":"<div xmlns=\"http://www.w3.org/1999/xhtml\"><p><b>code: </b>Formule (absoluut)</p><p><b>subject: </b>Patient/6388178</p><p><b>effective: </b>2021-12-01T00:00:00+01:00</p><p><b>performer: </b>Practitioner/Responsible</p><p><b>member: </b> // Observation/Observation.1.2.0.1 // Observation/Observation.1.2.0.2 // Observation/Observation.1.2.0.3 // Observation/Observation.1.2.0.4 // Observation/Observation.1.2.0.5 // </p></div>"},"status":"final","code":{"text":"Formule (absoluut)"},"subject":{"reference":"Patient/6388178"},"effectiveDateTime":"2021-12-01T00:00:00+01:00","performer":[{"reference":"Practitioner/Responsible"}],"hasMember":[{"reference":"Observation/Observation.1.2.0.1"},{"reference":"Observation/Observation.1.2.0.2"},{"reference":"Observation/Observation.1.2.0.3"},{"reference":"Observation/Observation.1.2.0.4"},{"reference":"Observation/Observation.1.2.0.5"}]}},{"fullUrl":"Observation/Observation.1.2.0.1","resource":{"resourceType":"Observation","id":"Observation.1.2.0.1","meta":{"profile":["https://www.ehealth.fgov.be/standards/fhir/StructureDefinition/be-observation-laboratory"]},"text":{"status":"generated","div":"<div xmlns=\"http://www.w3.org/1999/xhtml\"><p><b>code: </b>http://loinc.org 26499-4 Neutrofiele segmenten</p><p><b>subject: </b>Patient/6388178</p><p><b>effective: </b>2021-12-01T00:00:00+01:00</p><p><b>performer: </b>Practitioner/Responsible</p><p><b>result: </b>8935 /uL</p><p><b>specimen: </b>Specimen/002815333049</p><p><b>interpretation: </b>H</p><p><b>note: </b>Analyse gedekt door accreditatie.</p><p><b>referenceRange: </b> // Low: 1760 /uL // High: 7031 /uL // </p></div>"},"status":"final","code":{"coding":[{"system":"http://loinc.org","code":"26499-4"}],"text":"Neutrofiele segmenten"},"subject":{"reference":"Patient/6388178"},"effectiveDateTime":"2021-12-01T00:00:00+01:00","issued":"2021-12-07T09:10:17+01:00","performer":[{"reference":"Practitioner/Responsible"}],"valueQuantity":{"value":8935,"unit":"/uL","system":"http://unitsofmeasure.org","code":"/uL"},"interpretation":[{"coding":[{"system":"http://terminology.hl7.org/CodeSystem/v3-ObservationInterpretation","code":"H"}]}],"note":[{"text":"Analyse gedekt door accreditatie."}],"specimen":{"reference":"Specimen/002815333049"},"referenceRange":[{"low":{"value":1760,"unit":"/uL","system":"http://unitsofmeasure.org","code":"/uL"},"high":{"value":7031,"unit":"/uL","system":"http://unitsofmeasure.org","code":"/uL"}}]}},{"fullUrl":"Observation/Observation.1.2.0.2","resource":{"resourceType":"Observation","id":"Observation.1.2.0.2","meta":{"profile":["https://www.ehealth.fgov.be/standards/fhir/StructureDefinition/be-observation-laboratory"]},"text":{"status":"generated","div":"<div xmlns=\"http://www.w3.org/1999/xhtml\"><p><b>code: </b>http://loinc.org 26449-9 Eosinofielen</p><p><b>subject: </b>Patient/6388178</p><p><b>effective: </b>2021-12-01T00:00:00+01:00</p><p><b>performer: </b>Practitioner/Responsible</p><p><b>result: </b>1561 /uL</p><p><b>specimen: </b>Specimen/002815333049</p><p><b>interpretation: </b>H</p><p><b>note: </b>Analyse gedekt door accreditatie.</p><p><b>referenceRange: </b> // High: 559 /uL // </p></div>"},"status":"final","code":{"coding":[{"system":"http://loinc.org","code":"26449-9"}],"text":"Eosinofielen"},"subject":{"reference":"Patient/6388178"},"effectiveDateTime":"2021-12-01T00:00:00+01:00","issued":"2021-12-07T09:10:28+01:00","performer":[{"reference":"Practitioner/Responsible"}],"valueQuantity":{"value":1561,"unit":"/uL","system":"http://unitsofmeasure.org","code":"/uL"},"interpretation":[{"coding":[{"system":"http://terminology.hl7.org/CodeSystem/v3-ObservationInterpretation","code":"H"}]}],"note":[{"text":"Analyse gedekt door accreditatie."}],"specimen":{"reference":"Specimen/002815333049"},"referenceRange":[{"high":{"value":559,"unit":"/uL","system":"http://unitsofmeasure.org","code":"/uL"}}]}},{"fullUrl":"Observation/Observation.1.2.0.3","resource":{"resourceType":"Observation","id":"Observation.1.2.0.3","meta":{"profile":["https://www.ehealth.fgov.be/standards/fhir/StructureDefinition/be-observation-laboratory"]},"text":{"status":"generated","div":"<div xmlns=\"http://www.w3.org/1999/xhtml\"><p><b>code: </b>http://loinc.org 26444-0 Basofielen</p><p><b>subject: </b>Patient/6388178</p><p><b>effective: </b>2021-12-01T00:00:00+01:00</p><p><b>performer: </b>Practitioner/Responsible</p><p><b>result: </b>52 /uL</p><p><b>specimen: </b>Specimen/002815333049</p><p><b>note: </b>Analyse gedekt door accreditatie.</p><p><b>referenceRange: </b> // High: 102 /uL // </p></div>"},"status":"final","code":{"coding":[{"system":"http://loinc.org","code":"26444-0"}],"text":"Basofielen"},"subject":{"reference":"Patient/6388178"},"effectiveDateTime":"2021-12-01T00:00:00+01:00","issued":"2021-12-07T09:10:33+01:00","performer":[{"reference":"Practitioner/Responsible"}],"valueQuantity":{"value":52,"unit":"/uL","system":"http://unitsofmeasure.org","code":"/uL"},"note":[{"text":"Analyse gedekt door accreditatie."}],"specimen":{"reference":"Specimen/002815333049"},"referenceRange":[{"high":{"value":102,"unit":"/uL","system":"http://unitsofmeasure.org","code":"/uL"}}]}},{"fullUrl":"Observation/Observation.1.2.0.4","resource":{"resourceType":"Observation","id":"Observation.1.2.0.4","meta":{"profile":["https://www.ehealth.fgov.be/standards/fhir/StructureDefinition/be-observation-laboratory"]},"text":{"status":"generated","div":"<div xmlns=\"http://www.w3.org/1999/xhtml\"><p><b>code: </b>http://loinc.org 26474-7 Lymfocyten</p><p><b>subject: </b>Patient/6388178</p><p><b>effective: </b>2021-12-01T00:00:00+01:00</p><p><b>performer: </b>Practitioner/Responsible</p><p><b>result: </b>1679 /uL</p><p><b>specimen: </b>Specimen/002815333049</p><p><b>note: </b>Analyse gedekt door accreditatie.</p><p><b>referenceRange: </b> // Low: 964 /uL // High: 3440 /uL // </p></div>"},"status":"final","code":{"coding":[{"system":"http://loinc.org","code":"26474-7"}],"text":"Lymfocyten"},"subject":{"reference":"Patient/6388178"},"effectiveDateTime":"2021-12-01T00:00:00+01:00","issued":"2021-12-07T09:10:42+01:00","performer":[{"reference":"Practitioner/Responsible"}],"valueQuantity":{"value":1679,"unit":"/uL","system":"http://unitsofmeasure.org","code":"/uL"},"note":[{"text":"Analyse gedekt door accreditatie."}],"specimen":{"reference":"Specimen/002815333049"},"referenceRange":[{"low":{"value":964,"unit":"/uL","system":"http://unitsofmeasure.org","code":"/uL"},"high":{"value":3440,"unit":"/uL","system":"http://unitsofmeasure.org","code":"/uL"}}]}},{"fullUrl":"Observation/Observation.1.2.0.5","resource":{"resourceType":"Observation","id":"Observation.1.2.0.5","meta":{"profile":["https://www.ehealth.fgov.be/standards/fhir/StructureDefinition/be-observation-laboratory"]},"text":{"status":"generated","div":"<div xmlns=\"http://www.w3.org/1999/xhtml\"><p><b>code: </b>http://loinc.org 26484-6 Monocyten</p><p><b>subject: </b>Patient/6388178</p><p><b>effective: </b>2021-12-01T00:00:00+01:00</p><p><b>performer: </b>Practitioner/Responsible</p><p><b>result: </b>892 /uL</p><p><b>specimen: </b>Specimen/002815333049</p><p><b>note: </b>Analyse gedekt door accreditatie.</p><p><b>referenceRange: </b> // Low: 320 /uL // High: 979 /uL // </p></div>"},"status":"final","code":{"coding":[{"system":"http://loinc.org","code":"26484-6"}],"text":"Monocyten"},"subject":{"reference":"Patient/6388178"},"effectiveDateTime":"2021-12-01T00:00:00+01:00","issued":"2021-12-07T09:10:46+01:00","performer":[{"reference":"Practitioner/Responsible"}],"valueQuantity":{"value":892,"unit":"/uL","system":"http://unitsofmeasure.org","code":"/uL"},"note":[{"text":"Analyse gedekt door accreditatie."}],"specimen":{"reference":"Specimen/002815333049"},"referenceRange":[{"low":{"value":320,"unit":"/uL","system":"http://unitsofmeasure.org","code":"/uL"},"high":{"value":979,"unit":"/uL","system":"http://unitsofmeasure.org","code":"/uL"}}]}},{"fullUrl":"Observation/Observation.1.3.0.1","resource":{"resourceType":"Observation","id":"Observation.1.3.0.1","meta":{"profile":["https://www.ehealth.fgov.be/standards/fhir/StructureDefinition/be-observation-laboratory"]},"text":{"status":"generated","div":"<div xmlns=\"http://www.w3.org/1999/xhtml\"><p><b>code: </b>http://loinc.org 777-3 Trombocyten</p><p><b>subject: </b>Patient/6388178</p><p><b>effective: </b>2021-12-01T00:00:00+01:00</p><p><b>performer: </b>Practitioner/Responsible</p><p><b>result: </b>25 10*3/uL</p><p><b>specimen: </b>Specimen/002815333049</p><p><b>interpretation: </b>LL</p><p><b>note: </b>Analyse gedekt door accreditatie.</p><p><b>referenceRange: </b> // Low: 148 10*3/uL // High: 362 10*3/uL // </p></div>"},"status":"final","code":{"coding":[{"system":"http://loinc.org","code":"777-3"}],"text":"Trombocyten"},"subject":{"reference":"Patient/6388178"},"effectiveDateTime":"2021-12-01T00:00:00+01:00","issued":"2021-12-07T09:11:01+01:00","performer":[{"reference":"Practitioner/Responsible"}],"valueQuantity":{"value":25,"unit":"10*3/uL","system":"http://unitsofmeasure.org","code":"10*3/uL"},"interpretation":[{"coding":[{"system":"http://terminology.hl7.org/CodeSystem/v3-ObservationInterpretation","code":"LL"}]}],"note":[{"text":"Analyse gedekt door accreditatie."}],"specimen":{"reference":"Specimen/002815333049"},"referenceRange":[{"low":{"value":148,"unit":"10*3/uL","system":"http://unitsofmeasure.org","code":"10*3/uL"},"high":{"value":362,"unit":"10*3/uL","system":"http://unitsofmeasure.org","code":"10*3/uL"}}]}},{"fullUrl":"Observation/Observation.1.3.0.2","resource":{"resourceType":"Observation","id":"Observation.1.3.0.2","meta":{"profile":["https://www.ehealth.fgov.be/standards/fhir/StructureDefinition/be-observation-laboratory"]},"text":{"status":"generated","div":"<div xmlns=\"http://www.w3.org/1999/xhtml\"><p><b>code: </b>http://loinc.org 18314-5 Microscopie</p><p><b>subject: </b>Patient/6388178</p><p><b>effective: </b>2021-12-01T00:00:00+01:00</p><p><b>performer: </b>Practitioner/Responsible</p><p><b>result: </b>Trombocytenaggregaten, dit kan aanleiding geven\r\ntot een onderschatting van het aantal trombocyten.</p><p><b>specimen: </b>Specimen/002815333049</p><p><b>note: </b>Analyse gedekt door accreditatie.</p></div>"},"status":"final","code":{"coding":[{"system":"http://loinc.org","code":"18314-5"}],"text":"Microscopie"},"subject":{"reference":"Patient/6388178"},"effectiveDateTime":"2021-12-01T00:00:00+01:00","issued":"2021-12-07T09:13:08+01:00","performer":[{"reference":"Practitioner/Responsible"}],"valueString":"Trombocytenaggregaten, dit kan aanleiding geven\r\ntot een onderschatting van het aantal trombocyten.","note":[{"text":"Analyse gedekt door accreditatie."}],"specimen":{"reference":"Specimen/002815333049"}}},{"fullUrl":"Observation/Observation.2.0.0.0","resource":{"resourceType":"Observation","id":"Observation.2.0.0.0","meta":{"profile":["https://www.ehealth.fgov.be/standards/fhir/StructureDefinition/be-observation-laboratory"]},"text":{"status":"generated","div":"<div xmlns=\"http://www.w3.org/1999/xhtml\"><p><b>code: </b>AUTO-ANTILICHAMEN</p><p><b>subject: </b>Patient/6388178</p><p><b>effective: </b>2021-12-01T00:00:00+01:00</p><p><b>performer: </b>Practitioner/Responsible</p><p><b>member: </b> // Observation/Observation.2.0.0.1 // Observation/Observation.2.1.0.1 // Observation/Observation.2.1.1.1 // Observation/Observation.2.2.0.1 // Observation/Observation.2.2.0.2 // Observation/Observation.2.3.0.1 // Observation/Observation.2.3.0.2 // Observation/Observation.2.3.0.3 // Observation/Observation.2.3.0.4 // Observation/Observation.2.3.0.5 // Observation/Observation.2.3.0.6 // Observation/Observation.2.3.0.7 // Observation/Observation.2.3.0.8 // Observation/Observation.2.3.0.9 // </p></div>"},"status":"final","code":{"text":"AUTO-ANTILICHAMEN"},"subject":{"reference":"Patient/6388178"},"effectiveDateTime":"2021-12-01T00:00:00+01:00","performer":[{"reference":"Practitioner/Responsible"}],"hasMember":[{"reference":"Observation/Observation.2.0.0.1"},{"reference":"Observation/Observation.2.1.0.1"},{"reference":"Observation/Observation.2.1.1.1"},{"reference":"Observation/Observation.2.2.0.1"},{"reference":"Observation/Observation.2.2.0.2"},{"reference":"Observation/Observation.2.3.0.1"},{"reference":"Observation/Observation.2.3.0.2"},{"reference":"Observation/Observation.2.3.0.3"},{"reference":"Observation/Observation.2.3.0.4"},{"reference":"Observation/Observation.2.3.0.5"},{"reference":"Observation/Observation.2.3.0.6"},{"reference":"Observation/Observation.2.3.0.7"},{"reference":"Observation/Observation.2.3.0.8"},{"reference":"Observation/Observation.2.3.0.9"}]}},{"fullUrl":"Observation/Observation.2.0.0.1","resource":{"resourceType":"Observation","id":"Observation.2.0.0.1","meta":{"profile":["https://www.ehealth.fgov.be/standards/fhir/StructureDefinition/be-observation-laboratory"]},"text":{"status":"generated","div":"<div xmlns=\"http://www.w3.org/1999/xhtml\"><p><b>code: </b>http://loinc.org 8061-4 Antinucleaire AL (IIF)</p><p><b>subject: </b>Patient/6388178</p><p><b>effective: </b>2021-12-01T00:00:00+01:00</p><p><b>performer: </b>Practitioner/Responsible</p><p><b>result: </b>Positief</p><p><b>specimen: </b>Specimen/001815333049</p><p><b>interpretation: </b>H</p><p><b>note: </b>Identificatie van tegen specifiek nucleaire\r\nof cytoplasmatische antigenen gerichte anti-\r\nlichamen is mogelijk d.m.v. anti-DNA en/of\r\nanti-ENA bepaling.</p></div>"},"status":"final","code":{"coding":[{"system":"http://loinc.org","code":"8061-4"}],"text":"Antinucleaire AL (IIF)"},"subject":{"reference":"Patient/6388178"},"effectiveDateTime":"2021-12-01T00:00:00+01:00","issued":"2021-12-07T09:14:09+01:00","performer":[{"reference":"Practitioner/Responsible"}],"valueString":"Positief","interpretation":[{"coding":[{"system":"http://terminology.hl7.org/CodeSystem/v3-ObservationInterpretation","code":"H"}]}],"note":[{"text":"Identificatie van tegen specifiek nucleaire\r\nof cytoplasmatische antigenen gerichte anti-\r\nlichamen is mogelijk d.m.v. anti-DNA en/of\r\nanti-ENA bepaling."},{"text":"Analyse niet gedekt door accreditatie."}],"specimen":{"reference":"Specimen/001815333049"}}},{"fullUrl":"Observation/Observation.2.1.0.1","resource":{"resourceType":"Observation","id":"Observation.2.1.0.1","meta":{"profile":["https://www.ehealth.fgov.be/standards/fhir/StructureDefinition/be-observation-laboratory"]},"text":{"status":"generated","div":"<div xmlns=\"http://www.w3.org/1999/xhtml\"><p><b>code: </b>http://loinc.org 54149-0 Nucleair patroon</p><p><b>subject: </b>Patient/6388178</p><p><b>effective: </b>2021-12-01T00:00:00+01:00</p><p><b>performer: </b>Practitioner/Responsible</p><p><b>result: </b>Homogeen (AC-1)</p><p><b>specimen: </b>Specimen/001815333049</p><p><b>interpretation: </b>H</p><p><b>note: </b>Analyse niet gedekt door accreditatie.</p></div>"},"status":"final","code":{"coding":[{"system":"http://loinc.org","code":"54149-0"}],"text":"Nucleair patroon"},"subject":{"reference":"Patient/6388178"},"effectiveDateTime":"2021-12-01T00:00:00+01:00","issued":"2021-12-07T09:15:50+01:00","performer":[{"reference":"Practitioner/Responsible"}],"valueString":"Homogeen (AC-1)","interpretation":[{"coding":[{"system":"http://terminology.hl7.org/CodeSystem/v3-ObservationInterpretation","code":"H"}]}],"note":[{"text":"Analyse niet gedekt door accreditatie."}],"specimen":{"reference":"Specimen/001815333049"}}},{"fullUrl":"Observation/Observation.2.1.1.1","resource":{"resourceType":"Observation","id":"Observation.2.1.1.1","meta":{"profile":["https://www.ehealth.fgov.be/standards/fhir/StructureDefinition/be-observation-laboratory"]},"text":{"status":"generated","div":"<div xmlns=\"http://www.w3.org/1999/xhtml\"><p><b>code: </b>http://loinc.org 53983-3 Titer</p><p><b>subject: </b>Patient/6388178</p><p><b>effective: </b>2021-12-01T00:00:00+01:00</p><p><b>performer: </b>Practitioner/Responsible</p><p><b>result: </b>320 {titer}</p><p><b>specimen: </b>Specimen/001815333049</p><p><b>interpretation: </b>H</p><p><b>note: </b>Analyse niet gedekt door accreditatie.</p><p><b>referenceRange: </b> // Negatief // </p></div>"},"status":"final","code":{"coding":[{"system":"http://loinc.org","code":"53983-3"}],"text":"Titer"},"subject":{"reference":"Patient/6388178"},"effectiveDateTime":"2021-12-01T00:00:00+01:00","issued":"2021-12-07T09:16:08+01:00","performer":[{"reference":"Practitioner/Responsible"}],"valueQuantity":{"value":320,"unit":"{titer}","system":"http://unitsofmeasure.org","code":"{titer}"},"interpretation":[{"coding":[{"system":"http://terminology.hl7.org/CodeSystem/v3-ObservationInterpretation","code":"H"}]}],"note":[{"text":"Analyse niet gedekt door accreditatie."}],"specimen":{"reference":"Specimen/001815333049"},"referenceRange":[{"text":"Negatief"}]}},{"fullUrl":"Observation/Observation.2.2.0.1","resource":{"resourceType":"Observation","id":"Observation.2.2.0.1","meta":{"profile":["https://www.ehealth.fgov.be/standards/fhir/StructureDefinition/be-observation-laboratory"]},"text":{"status":"generated","div":"<div xmlns=\"http://www.w3.org/1999/xhtml\"><p><b>code: </b>http://loinc.org 55171-3 Cytopl. patroon</p><p><b>subject: </b>Patient/6388178</p><p><b>effective: </b>2021-12-01T00:00:00+01:00</p><p><b>performer: </b>Practitioner/Responsible</p><p><b>result: </b>Negatief</p><p><b>specimen: </b>Specimen/001815333049</p><p><b>note: </b>Analyse niet gedekt door accreditatie.</p></div>"},"status":"final","code":{"coding":[{"system":"http://loinc.org","code":"55171-3"}],"text":"Cytopl. patroon"},"subject":{"reference":"Patient/6388178"},"effectiveDateTime":"2021-12-01T00:00:00+01:00","issued":"2021-12-07T09:16:16+01:00","performer":[{"reference":"Practitioner/Responsible"}],"valueString":"Negatief","note":[{"text":"Analyse niet gedekt door accreditatie."}],"specimen":{"reference":"Specimen/001815333049"}}},{"fullUrl":"Observation/Observation.2.2.0.2","resource":{"resourceType":"Observation","id":"Observation.2.2.0.2","meta":{"profile":["https://www.ehealth.fgov.be/standards/fhir/StructureDefinition/be-observation-laboratory"]},"text":{"status":"generated","div":"<div xmlns=\"http://www.w3.org/1999/xhtml\"><p><b>code: </b>http://www.macsys.be/hl7/testcode MED11087 Mitotisch patroon</p><p><b>subject: </b>Patient/6388178</p><p><b>effective: </b>2021-12-01T00:00:00+01:00</p><p><b>performer: </b>Practitioner/Responsible</p><p><b>result: </b>Negatief</p><p><b>specimen: </b>Specimen/001815333049</p><p><b>note: </b>Analyse niet gedekt door accreditatie.</p></div>"},"status":"final","code":{"coding":[{"system":"http://www.macsys.be/hl7/testcode","code":"MED11087"}],"text":"Mitotisch patroon"},"subject":{"reference":"Patient/6388178"},"effectiveDateTime":"2021-12-01T00:00:00+01:00","issued":"2021-12-07T09:16:19+01:00","performer":[{"reference":"Practitioner/Responsible"}],"valueString":"Negatief","note":[{"text":"Analyse niet gedekt door accreditatie."}],"specimen":{"reference":"Specimen/001815333049"}}},{"fullUrl":"Observation/Observation.2.3.0.1","resource":{"resourceType":"Observation","id":"Observation.2.3.0.1","meta":{"profile":["https://www.ehealth.fgov.be/standards/fhir/StructureDefinition/be-observation-laboratory"]},"text":{"status":"generated","div":"<div xmlns=\"http://www.w3.org/1999/xhtml\"><p><b>code: </b>http://loinc.org 32677-7 Anti-DNA (ELIA)</p><p><b>subject: </b>Patient/6388178</p><p><b>effective: </b>2021-12-01T00:00:00+01:00</p><p><b>performer: </b>Practitioner/Responsible</p><p><b>result: </b>38,0 [IU]/mL</p><p><b>specimen: </b>Specimen/001815333049</p><p><b>interpretation: </b>H</p><p><b>note: </b>Analyse niet gedekt door accreditatie.</p><p><b>referenceRange: </b> // High: 9,9 [IU]/mL // Grijze zone   10 - 15 IU/mL\r\nPositief    &gt;15       IU/mL // </p></div>"},"status":"final","code":{"coding":[{"system":"http://loinc.org","code":"32677-7"}],"text":"Anti-DNA (ELIA)"},"subject":{"reference":"Patient/6388178"},"effectiveDateTime":"2021-12-01T00:00:00+01:00","issued":"2021-12-07T09:16:25+01:00","performer":[{"reference":"Practitioner/Responsible"}],"valueQuantity":{"value":38.0,"unit":"[IU]/mL","system":"http://unitsofmeasure.org","code":"[IU]/mL"},"interpretation":[{"coding":[{"system":"http://terminology.hl7.org/CodeSystem/v3-ObservationInterpretation","code":"H"}]}],"note":[{"text":"Analyse niet gedekt door accreditatie."}],"specimen":{"reference":"Specimen/001815333049"},"referenceRange":[{"high":{"value":9.9,"unit":"[IU]/mL","system":"http://unitsofmeasure.org","code":"[IU]/mL"},"text":"Grijze zone   10 - 15 IU/mL\r\nPositief    >15       IU/mL"}]}},{"fullUrl":"Observation/Observation.2.3.0.2","resource":{"resourceType":"Observation","id":"Observation.2.3.0.2","meta":{"profile":["https://www.ehealth.fgov.be/standards/fhir/StructureDefinition/be-observation-laboratory"]},"text":{"status":"generated","div":"<div xmlns=\"http://www.w3.org/1999/xhtml\"><p><b>code: </b>http://loinc.org 63391-7 Anti-ENA screening</p><p><b>subject: </b>Patient/6388178</p><p><b>effective: </b>2021-12-01T00:00:00+01:00</p><p><b>performer: </b>Practitioner/Responsible</p><p><b>result: </b>Positief</p><p><b>specimen: </b>Specimen/001815333049</p><p><b>interpretation: </b>H</p><p><b>note: </b>Analyse niet gedekt door accreditatie.</p><p><b>referenceRange: </b> // Samenstelling ENA-panel: U1RNP, SS-A (Ro52 en Ro60), SS-B, \r\nCenp-B, Scl-70, Jo-1, fibrillarine, RNA Pol III, Rib-P,\r\nPM-Scl, PCNA, Mi-2, Sm, DNA // </p></div>"},"status":"final","code":{"coding":[{"system":"http://loinc.org","code":"63391-7"}],"text":"Anti-ENA screening"},"subject":{"reference":"Patient/6388178"},"effectiveDateTime":"2021-12-01T00:00:00+01:00","issued":"2021-12-07T09:16:41+01:00","performer":[{"reference":"Practitioner/Responsible"}],"valueString":"Positief","interpretation":[{"coding":[{"system":"http://terminology.hl7.org/CodeSystem/v3-ObservationInterpretation","code":"H"}]}],"note":[{"text":"Analyse niet gedekt door accreditatie."}],"specimen":{"reference":"Specimen/001815333049"},"referenceRange":[{"text":"Samenstelling ENA-panel: U1RNP, SS-A (Ro52 en Ro60), SS-B, \r\nCenp-B, Scl-70, Jo-1, fibrillarine, RNA Pol III, Rib-P,\r\nPM-Scl, PCNA, Mi-2, Sm, DNA"}]}},{"fullUrl":"Observation/Observation.2.3.0.3","resource":{"resourceType":"Observation","id":"Observation.2.3.0.3","meta":{"profile":["https://www.ehealth.fgov.be/standards/fhir/StructureDefinition/be-observation-laboratory"]},"text":{"status":"generated","div":"<div xmlns=\"http://www.w3.org/1999/xhtml\"><p><b>code: </b>http://loinc.org 56148-0 Sm</p><p><b>subject: </b>Patient/6388178</p><p><b>effective: </b>2021-12-01T00:00:00+01:00</p><p><b>performer: </b>Practitioner/Responsible</p><p><b>result: </b>&lt;0,6 U/mL</p><p><b>specimen: </b>Specimen/001815333049</p><p><b>note: </b>Analyse niet gedekt door accreditatie.</p><p><b>referenceRange: </b> // High: 10,0 U/mL // </p></div>"},"status":"final","code":{"coding":[{"system":"http://loinc.org","code":"56148-0"}],"text":"Sm"},"subject":{"reference":"Patient/6388178"},"effectiveDateTime":"2021-12-01T00:00:00+01:00","issued":"2021-12-07T09:16:50+01:00","performer":[{"reference":"Practitioner/Responsible"}],"valueQuantity":{"value":0.6,"comparator":"<","unit":"U/mL","system":"http://unitsofmeasure.org","code":"U/mL"},"note":[{"text":"Analyse niet gedekt door accreditatie."}],"specimen":{"reference":"Specimen/001815333049"},"referenceRange":[{"high":{"value":10.0,"unit":"U/mL","system":"http://unitsofmeasure.org","code":"U/mL"}}]}},{"fullUrl":"Observation/Observation.2.3.0.4","resource":{"resourceType":"Observation","id":"Observation.2.3.0.4","meta":{"profile":["https://www.ehealth.fgov.be/standards/fhir/StructureDefinition/be-observation-laboratory"]},"text":{"status":"generated","div":"<div xmlns=\"http://www.w3.org/1999/xhtml\"><p><b>code: </b>http://loinc.org 29374-6 RNP</p><p><b>subject: </b>Patient/6388178</p><p><b>effective: </b>2021-12-01T00:00:00+01:00</p><p><b>performer: </b>Practitioner/Responsible</p><p><b>result: </b>0,6 U/mL</p><p><b>specimen: </b>Specimen/001815333049</p><p><b>note: </b>Analyse niet gedekt door accreditatie.</p><p><b>referenceRange: </b> // High: 10,0 U/mL // </p></div>"},"status":"final","code":{"coding":[{"system":"http://loinc.org","code":"29374-6"}],"text":"RNP"},"subject":{"reference":"Patient/6388178"},"effectiveDateTime":"2021-12-01T00:00:00+01:00","issued":"2021-12-07T09:16:53+01:00","performer":[{"reference":"Practitioner/Responsible"}],"valueQuantity":{"value":0.6,"unit":"U/mL","system":"http://unitsofmeasure.org","code":"U/mL"},"note":[{"text":"Analyse niet gedekt door accreditatie."}],"specimen":{"reference":"Specimen/001815333049"},"referenceRange":[{"high":{"value":10.0,"unit":"U/mL","system":"http://unitsofmeasure.org","code":"U/mL"}}]}},{"fullUrl":"Observation/Observation.2.3.0.5","resource":{"resourceType":"Observation","id":"Observation.2.3.0.5","meta":{"profile":["https://www.ehealth.fgov.be/standards/fhir/StructureDefinition/be-observation-laboratory"]},"text":{"status":"generated","div":"<div xmlns=\"http://www.w3.org/1999/xhtml\"><p><b>code: </b>http://loinc.org 29964-4 SSA/Ro</p><p><b>subject: </b>Patient/6388178</p><p><b>effective: </b>2021-12-01T00:00:00+01:00</p><p><b>performer: </b>Practitioner/Responsible</p><p><b>result: </b>239,1 U/mL</p><p><b>specimen: </b>Specimen/001815333049</p><p><b>interpretation: </b>H</p><p><b>note: </b>Antilichamen tegen SS-A komen voor bij Sjogren\r\nsyndroom (40 - 95 %), SLE (20 - 60 %), neona-\r\ntaal lupus syndroom (100 %), congenitaal\r\nauriculo-ventriculair blok, primaire biliaire\r\ncholangitis en occasioneel bij chronische actieve\r\nhepatitis.</p><p><b>referenceRange: </b> // High: 10,0 U/mL // </p></div>"},"status":"final","code":{"coding":[{"system":"http://loinc.org","code":"29964-4"}],"text":"SSA/Ro"},"subject":{"reference":"Patient/6388178"},"effectiveDateTime":"2021-12-01T00:00:00+01:00","issued":"2021-12-07T09:16:57+01:00","performer":[{"reference":"Practitioner/Responsible"}],"valueQuantity":{"value":239.1,"unit":"U/mL","system":"http://unitsofmeasure.org","code":"U/mL"},"interpretation":[{"coding":[{"system":"http://terminology.hl7.org/CodeSystem/v3-ObservationInterpretation","code":"H"}]}],"note":[{"text":"Antilichamen tegen SS-A komen voor bij Sjogren\r\nsyndroom (40 - 95 %), SLE (20 - 60 %), neona-\r\ntaal lupus syndroom (100 %), congenitaal\r\nauriculo-ventriculair blok, primaire biliaire\r\ncholangitis en occasioneel bij chronische actieve\r\nhepatitis."},{"text":"Analyse niet gedekt door accreditatie."}],"specimen":{"reference":"Specimen/001815333049"},"referenceRange":[{"high":{"value":10.0,"unit":"U/mL","system":"http://unitsofmeasure.org","code":"U/mL"}}]}},{"fullUrl":"Observation/Observation.2.3.0.6","resource":{"resourceType":"Observation","id":"Observation.2.3.0.6","meta":{"profile":["https://www.ehealth.fgov.be/standards/fhir/StructureDefinition/be-observation-laboratory"]},"text":{"status":"generated","div":"<div xmlns=\"http://www.w3.org/1999/xhtml\"><p><b>code: </b>http://loinc.org 29965-1 SSB/La</p><p><b>subject: </b>Patient/6388178</p><p><b>effective: </b>2021-12-01T00:00:00+01:00</p><p><b>performer: </b>Practitioner/Responsible</p><p><b>result: </b>8,8 U/mL</p><p><b>specimen: </b>Specimen/001815333049</p><p><b>note: </b>Analyse niet gedekt door accreditatie.</p><p><b>referenceRange: </b> // High: 10,0 U/mL // </p></div>"},"status":"final","code":{"coding":[{"system":"http://loinc.org","code":"29965-1"}],"text":"SSB/La"},"subject":{"reference":"Patient/6388178"},"effectiveDateTime":"2021-12-01T00:00:00+01:00","issued":"2021-12-07T09:17:08+01:00","performer":[{"reference":"Practitioner/Responsible"}],"valueQuantity":{"value":8.8,"unit":"U/mL","system":"http://unitsofmeasure.org","code":"U/mL"},"note":[{"text":"Analyse niet gedekt door accreditatie."}],"specimen":{"reference":"Specimen/001815333049"},"referenceRange":[{"high":{"value":10.0,"unit":"U/mL","system":"http://unitsofmeasure.org","code":"U/mL"}}]}},{"fullUrl":"Observation/Observation.2.3.0.7","resource":{"resourceType":"Observation","id":"Observation.2.3.0.7","meta":{"profile":["https://www.ehealth.fgov.be/standards/fhir/StructureDefinition/be-observation-laboratory"]},"text":{"status":"generated","div":"<div xmlns=\"http://www.w3.org/1999/xhtml\"><p><b>code: </b>http://loinc.org 11565-9 Jo-1</p><p><b>subject: </b>Patient/6388178</p><p><b>effective: </b>2021-12-01T00:00:00+01:00</p><p><b>performer: </b>Practitioner/Responsible</p><p><b>result: </b>&lt;0,3 U/mL</p><p><b>specimen: </b>Specimen/001815333049</p><p><b>note: </b>Analyse niet gedekt door accreditatie.</p><p><b>referenceRange: </b> // High: 10,0 U/mL // </p></div>"},"status":"final","code":{"coding":[{"system":"http://loinc.org","code":"11565-9"}],"text":"Jo-1"},"subject":{"reference":"Patient/6388178"},"effectiveDateTime":"2021-12-01T00:00:00+01:00","issued":"2021-12-07T09:17:12+01:00","performer":[{"reference":"Practitioner/Responsible"}],"valueQuantity":{"value":0.3,"comparator":"<","unit":"U/mL","system":"http://unitsofmeasure.org","code":"U/mL"},"note":[{"text":"Analyse niet gedekt door accreditatie."}],"specimen":{"reference":"Specimen/001815333049"},"referenceRange":[{"high":{"value":10.0,"unit":"U/mL","system":"http://unitsofmeasure.org","code":"U/mL"}}]}},{"fullUrl":"Observation/Observation.2.3.0.8","resource":{"resourceType":"Observation","id":"Observation.2.3.0.8","meta":{"profile":["https://www.ehealth.fgov.be/standards/fhir/StructureDefinition/be-observation-laboratory"]},"text":{"status":"generated","div":"<div xmlns=\"http://www.w3.org/1999/xhtml\"><p><b>code: </b>http://loinc.org 56693-5 Scl 70s</p><p><b>subject: </b>Patient/6388178</p><p><b>effective: </b>2021-12-01T00:00:00+01:00</p><p><b>performer: </b>Practitioner/Responsible</p><p><b>result: </b>&lt;0,4 U/mL</p><p><b>specimen: </b>Specimen/001815333049</p><p><b>note: </b>Analyse niet gedekt door accreditatie.</p><p><b>referenceRange: </b> // High: 10,0 U/mL // </p></div>"},"status":"final","code":{"coding":[{"system":"http://loinc.org","code":"56693-5"}],"text":"Scl 70s"},"subject":{"reference":"Patient/6388178"},"effectiveDateTime":"2021-12-01T00:00:00+01:00","issued":"2021-12-07T09:17:16+01:00","performer":[{"reference":"Practitioner/Responsible"}],"valueQuantity":{"value":0.4,"comparator":"<","unit":"U/mL","system":"http://unitsofmeasure.org","code":"U/mL"},"note":[{"text":"Analyse niet gedekt door accreditatie."}],"specimen":{"reference":"Specimen/001815333049"},"referenceRange":[{"high":{"value":10.0,"unit":"U/mL","system":"http://unitsofmeasure.org","code":"U/mL"}}]}},{"fullUrl":"Observation/Observation.2.3.0.9","resource":{"resourceType":"Observation","id":"Observation.2.3.0.9","meta":{"profile":["https://www.ehealth.fgov.be/standards/fhir/StructureDefinition/be-observation-laboratory"]},"text":{"status":"generated","div":"<div xmlns=\"http://www.w3.org/1999/xhtml\"><p><b>code: </b>http://loinc.org 53982-5 CENP-B</p><p><b>subject: </b>Patient/6388178</p><p><b>effective: </b>2021-12-01T00:00:00+01:00</p><p><b>performer: </b>Practitioner/Responsible</p><p><b>result: </b>&lt;0,4 U/mL</p><p><b>specimen: </b>Specimen/001815333049</p><p><b>note: </b>Analyse niet gedekt door accreditatie.</p><p><b>referenceRange: </b> // High: 10,0 U/mL // </p></div>"},"status":"final","code":{"coding":[{"system":"http://loinc.org","code":"53982-5"}],"text":"CENP-B"},"subject":{"reference":"Patient/6388178"},"effectiveDateTime":"2021-12-01T00:00:00+01:00","issued":"2021-12-07T09:17:19+01:00","performer":[{"reference":"Practitioner/Responsible"}],"valueQuantity":{"value":0.4,"comparator":"<","unit":"U/mL","system":"http://unitsofmeasure.org","code":"U/mL"},"note":[{"text":"Analyse niet gedekt door accreditatie."}],"specimen":{"reference":"Specimen/001815333049"},"referenceRange":[{"high":{"value":10.0,"unit":"U/mL","system":"http://unitsofmeasure.org","code":"U/mL"}}]}},{"fullUrl":"Observation/Observation.3.0.0.0","resource":{"resourceType":"Observation","id":"Observation.3.0.0.0","meta":{"profile":["https://www.ehealth.fgov.be/standards/fhir/StructureDefinition/be-observation-laboratory"]},"text":{"status":"generated","div":"<div xmlns=\"http://www.w3.org/1999/xhtml\"><p><b>code: </b>ALLERGIE</p><p><b>subject: </b>Patient/6388178</p><p><b>effective: </b>2021-12-01T00:00:00+01:00</p><p><b>performer: </b>Practitioner/Responsible</p><p><b>member: </b> // Observation/Observation.3.1.0.0 // Observation/Observation.3.2.0.0 // </p></div>"},"status":"final","code":{"text":"ALLERGIE"},"subject":{"reference":"Patient/6388178"},"effectiveDateTime":"2021-12-01T00:00:00+01:00","performer":[{"reference":"Practitioner/Responsible"}],"hasMember":[{"reference":"Observation/Observation.3.1.0.0"},{"reference":"Observation/Observation.3.2.0.0"}]}},{"fullUrl":"Observation/Observation.3.1.0.0","resource":{"resourceType":"Observation","id":"Observation.3.1.0.0","meta":{"profile":["https://www.ehealth.fgov.be/standards/fhir/StructureDefinition/be-observation-laboratory"]},"text":{"status":"generated","div":"<div xmlns=\"http://www.w3.org/1999/xhtml\"><p><b>code: </b>Specifiek IgE mijten</p><p><b>subject: </b>Patient/6388178</p><p><b>effective: </b>2021-12-01T00:00:00+01:00</p><p><b>performer: </b>Practitioner/Responsible</p><p><b>member: </b> // Observation/Observation.3.1.0.1 // </p></div>"},"status":"final","code":{"text":"Specifiek IgE mijten"},"subject":{"reference":"Patient/6388178"},"effectiveDateTime":"2021-12-01T00:00:00+01:00","performer":[{"reference":"Practitioner/Responsible"}],"hasMember":[{"reference":"Observation/Observation.3.1.0.1"}]}},{"fullUrl":"Observation/Observation.3.1.0.1","resource":{"resourceType":"Observation","id":"Observation.3.1.0.1","meta":{"profile":["https://www.ehealth.fgov.be/standards/fhir/StructureDefinition/be-observation-laboratory"]},"text":{"status":"generated","div":"<div xmlns=\"http://www.w3.org/1999/xhtml\"><p><b>code: </b>http://loinc.org 6096-2 Dermat. pteronyssinus</p><p><b>subject: </b>Patient/6388178</p><p><b>effective: </b>2021-12-01T00:00:00+01:00</p><p><b>performer: </b>Practitioner/Responsible</p><p><b>result: </b>0,46 kU/L</p><p><b>specimen: </b>Specimen/001815333049</p><p><b>interpretation: </b>H</p><p><b>note: </b>Analyse niet gedekt door accreditatie.</p><p><b>referenceRange: </b> // High: 0,10 kU/L // </p></div>"},"status":"final","code":{"coding":[{"system":"http://loinc.org","code":"6096-2"}],"text":"Dermat. pteronyssinus"},"subject":{"reference":"Patient/6388178"},"effectiveDateTime":"2021-12-01T00:00:00+01:00","issued":"2021-12-07T09:17:26+01:00","performer":[{"reference":"Practitioner/Responsible"}],"valueQuantity":{"value":0.46,"unit":"kU/L","system":"http://unitsofmeasure.org","code":"kU/L"},"interpretation":[{"coding":[{"system":"http://terminology.hl7.org/CodeSystem/v3-ObservationInterpretation","code":"H"}]}],"note":[{"text":"Analyse niet gedekt door accreditatie."}],"specimen":{"reference":"Specimen/001815333049"},"referenceRange":[{"high":{"value":0.10,"unit":"kU/L","system":"http://unitsofmeasure.org","code":"kU/L"}}]}},{"fullUrl":"Observation/Observation.3.2.0.0","resource":{"resourceType":"Observation","id":"Observation.3.2.0.0","meta":{"profile":["https://www.ehealth.fgov.be/standards/fhir/StructureDefinition/be-observation-laboratory"]},"text":{"status":"generated","div":"<div xmlns=\"http://www.w3.org/1999/xhtml\"><p><b>code: </b>Specifiek IgE bomen</p><p><b>subject: </b>Patient/6388178</p><p><b>effective: </b>2021-12-01T00:00:00+01:00</p><p><b>performer: </b>Practitioner/Responsible</p><p><b>member: </b> // Observation/Observation.3.2.0.1 // </p></div>"},"status":"final","code":{"text":"Specifiek IgE bomen"},"subject":{"reference":"Patient/6388178"},"effectiveDateTime":"2021-12-01T00:00:00+01:00","performer":[{"reference":"Practitioner/Responsible"}],"hasMember":[{"reference":"Observation/Observation.3.2.0.1"}]}},{"fullUrl":"Observation/Observation.3.2.0.1","resource":{"resourceType":"Observation","id":"Observation.3.2.0.1","meta":{"profile":["https://www.ehealth.fgov.be/standards/fhir/StructureDefinition/be-observation-laboratory"]},"text":{"status":"generated","div":"<div xmlns=\"http://www.w3.org/1999/xhtml\"><p><b>code: </b>http://loinc.org 15283-5 Ruwe berk</p><p><b>subject: </b>Patient/6388178</p><p><b>effective: </b>2021-12-01T00:00:00+01:00</p><p><b>performer: </b>Practitioner/Responsible</p><p><b>result: </b>&lt;0,10 kU/L</p><p><b>specimen: </b>Specimen/001815333049</p><p><b>note: </b>Analyse niet gedekt door accreditatie.</p><p><b>referenceRange: </b> // High: 0,10 kU/L // </p></div>"},"status":"final","code":{"coding":[{"system":"http://loinc.org","code":"15283-5"}],"text":"Ruwe berk"},"subject":{"reference":"Patient/6388178"},"effectiveDateTime":"2021-12-01T00:00:00+01:00","issued":"2021-12-07T09:17:30+01:00","performer":[{"reference":"Practitioner/Responsible"}],"valueQuantity":{"value":0.10,"comparator":"<","unit":"kU/L","system":"http://unitsofmeasure.org","code":"kU/L"},"note":[{"text":"Analyse niet gedekt door accreditatie."}],"specimen":{"reference":"Specimen/001815333049"},"referenceRange":[{"high":{"value":0.10,"unit":"kU/L","system":"http://unitsofmeasure.org","code":"kU/L"}}]}},{"fullUrl":"Observation/Observation.4.0.0.0","resource":{"resourceType":"Observation","id":"Observation.4.0.0.0","meta":{"profile":["https://www.ehealth.fgov.be/standards/fhir/StructureDefinition/be-observation-laboratory"]},"text":{"status":"generated","div":"<div xmlns=\"http://www.w3.org/1999/xhtml\"><p><b>code: </b>IgG SPECIFIEKE ALLERGENEN</p><p><b>subject: </b>Patient/6388178</p><p><b>effective: </b>2021-12-01T00:00:00+01:00</p><p><b>performer: </b>Practitioner/Responsible</p><p><b>member: </b> // Observation/Observation.4.1.0.0 // </p></div>"},"status":"final","code":{"text":"IgG SPECIFIEKE ALLERGENEN"},"subject":{"reference":"Patient/6388178"},"effectiveDateTime":"2021-12-01T00:00:00+01:00","performer":[{"reference":"Practitioner/Responsible"}],"hasMember":[{"reference":"Observation/Observation.4.1.0.0"}]}},{"fullUrl":"Observation/Observation.4.1.0.0","resource":{"resourceType":"Observation","id":"Observation.4.1.0.0","meta":{"profile":["https://www.ehealth.fgov.be/standards/fhir/StructureDefinition/be-observation-laboratory"]},"text":{"status":"generated","div":"<div xmlns=\"http://www.w3.org/1999/xhtml\"><p><b>code: </b>Specifiek IgG Voeding</p><p><b>subject: </b>Patient/6388178</p><p><b>effective: </b>2021-12-01T00:00:00+01:00</p><p><b>performer: </b>Practitioner/Responsible</p><p><b>member: </b> // Observation/Observation.4.1.1.0 // Observation/Observation.4.1.2.0 // </p></div>"},"status":"final","code":{"text":"Specifiek IgG Voeding"},"subject":{"reference":"Patient/6388178"},"effectiveDateTime":"2021-12-01T00:00:00+01:00","performer":[{"reference":"Practitioner/Responsible"}],"hasMember":[{"reference":"Observation/Observation.4.1.1.0"},{"reference":"Observation/Observation.4.1.2.0"}]}},{"fullUrl":"Observation/Observation.4.1.1.0","resource":{"resourceType":"Observation","id":"Observation.4.1.1.0","meta":{"profile":["https://www.ehealth.fgov.be/standards/fhir/StructureDefinition/be-observation-laboratory"]},"text":{"status":"generated","div":"<div xmlns=\"http://www.w3.org/1999/xhtml\"><p><b>code: </b>Zuivelproducten</p><p><b>subject: </b>Patient/6388178</p><p><b>effective: </b>2021-12-01T00:00:00+01:00</p><p><b>performer: </b>Practitioner/Responsible</p><p><b>member: </b> // Observation/Observation.4.1.1.1 // Observation/Observation.4.1.1.2 // </p></div>"},"status":"final","code":{"text":"Zuivelproducten"},"subject":{"reference":"Patient/6388178"},"effectiveDateTime":"2021-12-01T00:00:00+01:00","performer":[{"reference":"Practitioner/Responsible"}],"hasMember":[{"reference":"Observation/Observation.4.1.1.1"},{"reference":"Observation/Observation.4.1.1.2"}]}},{"fullUrl":"Observation/Observation.4.1.1.1","resource":{"resourceType":"Observation","id":"Observation.4.1.1.1","meta":{"profile":["https://www.ehealth.fgov.be/standards/fhir/StructureDefinition/be-observation-laboratory"]},"text":{"status":"generated","div":"<div xmlns=\"http://www.w3.org/1999/xhtml\"><p><b>code: </b>http://loinc.org 63418-8 Alfa-Lactalbumine</p><p><b>subject: </b>Patient/6388178</p><p><b>effective: </b>2021-12-01T00:00:00+01:00</p><p><b>performer: </b>Practitioner/Responsible</p><p><b>result: </b>3,4 mg/L</p><p><b>specimen: </b>Specimen/001815333049</p><p><b>note: </b>Analyse uitgevoerd door extern labo.</p><p><b>referenceRange: </b> // High: 5,0 mg/L // </p></div>"},"status":"final","code":{"coding":[{"system":"http://loinc.org","code":"63418-8"}],"text":"Alfa-Lactalbumine"},"subject":{"reference":"Patient/6388178"},"effectiveDateTime":"2021-12-01T00:00:00+01:00","issued":"2021-12-07T09:17:34+01:00","performer":[{"reference":"Practitioner/Responsible"}],"valueQuantity":{"value":3.4,"unit":"mg/L","system":"http://unitsofmeasure.org","code":"mg/L"},"note":[{"text":"Analyse uitgevoerd door extern labo."},{"text":"Analyse niet gedekt door accreditatie."}],"specimen":{"reference":"Specimen/001815333049"},"referenceRange":[{"high":{"value":5.0,"unit":"mg/L","system":"http://unitsofmeasure.org","code":"mg/L"}}]}},{"fullUrl":"Observation/Observation.4.1.1.2","resource":{"resourceType":"Observation","id":"Observation.4.1.1.2","meta":{"profile":["https://www.ehealth.fgov.be/standards/fhir/StructureDefinition/be-observation-laboratory"]},"text":{"status":"generated","div":"<div xmlns=\"http://www.w3.org/1999/xhtml\"><p><b>code: </b>http://loinc.org 63090-5 Bta-lactoglobulin</p><p><b>subject: </b>Patient/6388178</p><p><b>effective: </b>2021-12-01T00:00:00+01:00</p><p><b>performer: </b>Practitioner/Responsible</p><p><b>result: </b>&lt;2,0 mg/L</p><p><b>specimen: </b>Specimen/001815333049</p><p><b>note: </b>Analyse uitgevoerd door extern labo.</p><p><b>referenceRange: </b> // High: 5,0 mg/L // </p></div>"},"status":"final","code":{"coding":[{"system":"http://loinc.org","code":"63090-5"}],"text":"Bta-lactoglobulin"},"subject":{"reference":"Patient/6388178"},"effectiveDateTime":"2021-12-01T00:00:00+01:00","issued":"2021-12-07T09:17:39+01:00","performer":[{"reference":"Practitioner/Responsible"}],"valueQuantity":{"value":2.0,"comparator":"<","unit":"mg/L","system":"http://unitsofmeasure.org","code":"mg/L"},"note":[{"text":"Analyse uitgevoerd door extern labo."},{"text":"Analyse niet gedekt door accreditatie."}],"specimen":{"reference":"Specimen/001815333049"},"referenceRange":[{"high":{"value":5.0,"unit":"mg/L","system":"http://unitsofmeasure.org","code":"mg/L"}}]}},{"fullUrl":"Observation/Observation.4.1.2.0","resource":{"resourceType":"Observation","id":"Observation.4.1.2.0","meta":{"profile":["https://www.ehealth.fgov.be/standards/fhir/StructureDefinition/be-observation-laboratory"]},"text":{"status":"generated","div":"<div xmlns=\"http://www.w3.org/1999/xhtml\"><p><b>code: </b>Granen</p><p><b>subject: </b>Patient/6388178</p><p><b>effective: </b>2021-12-01T00:00:00+01:00</p><p><b>performer: </b>Practitioner/Responsible</p><p><b>member: </b> // Observation/Observation.4.1.2.1 // </p></div>"},"status":"final","code":{"text":"Granen"},"subject":{"reference":"Patient/6388178"},"effectiveDateTime":"2021-12-01T00:00:00+01:00","performer":[{"reference":"Practitioner/Responsible"}],"hasMember":[{"reference":"Observation/Observation.4.1.2.1"}]}},{"fullUrl":"Observation/Observation.4.1.2.1","resource":{"resourceType":"Observation","id":"Observation.4.1.2.1","meta":{"profile":["https://www.ehealth.fgov.be/standards/fhir/StructureDefinition/be-observation-laboratory"]},"text":{"status":"generated","div":"<div xmlns=\"http://www.w3.org/1999/xhtml\"><p><b>code: </b>http://loinc.org 35537-0 Tarwe</p><p><b>subject: </b>Patient/6388178</p><p><b>effective: </b>2021-12-01T00:00:00+01:00</p><p><b>performer: </b>Practitioner/Responsible</p><p><b>result: </b>11,9 mg/L</p><p><b>specimen: </b>Specimen/001815333049</p><p><b>interpretation: </b>H</p><p><b>note: </b>Analyse uitgevoerd door extern labo.</p><p><b>referenceRange: </b> // High: 5,0 mg/L // Interpretatie:\r\n5,0 - 7,5 mg/l   grenswaarde\r\n7,5 - 15,0 mg/L  matig reactief\r\n&gt;15,0 mg/L       sterk reactief // </p></div>"},"status":"final","code":{"coding":[{"system":"http://loinc.org","code":"35537-0"}],"text":"Tarwe"},"subject":{"reference":"Patient/6388178"},"effectiveDateTime":"2021-12-01T00:00:00+01:00","issued":"2021-12-07T09:17:43+01:00","performer":[{"reference":"Practitioner/Responsible"}],"valueQuantity":{"value":11.9,"unit":"mg/L","system":"http://unitsofmeasure.org","code":"mg/L"},"interpretation":[{"coding":[{"system":"http://terminology.hl7.org/CodeSystem/v3-ObservationInterpretation","code":"H"}]}],"note":[{"text":"Analyse uitgevoerd door extern labo."},{"text":"Analyse niet gedekt door accreditatie."}],"specimen":{"reference":"Specimen/001815333049"},"referenceRange":[{"high":{"value":5.0,"unit":"mg/L","system":"http://unitsofmeasure.org","code":"mg/L"},"text":"Interpretatie:\r\n5,0 - 7,5 mg/l   grenswaarde\r\n7,5 - 15,0 mg/L  matig reactief\r\n>15,0 mg/L       sterk reactief"}]}},{"fullUrl":"DiagnosticReport/815333049","resource":{"resourceType":"DiagnosticReport","id":"815333049","meta":{"versionId":"11","profile":["https://www.ehealth.fgov.be/standards/fhir/StructureDefinition/be-laboratory-report"]},"language":"nl","text":{"status":"generated","div":"<div xmlns=\"http://www.w3.org/1999/xhtml\" xml:lang=\"nl\" lang=\"nl\"><p><b>id: </b>815333049</p><p><b>basedOn: </b>ServiceRequest/815333049</p><p><b>status: </b>preliminary</p><p><b>category: </b>http://terminology.hl7.org/CodeSystem/v2-0074 LAB Laboratory</p><p><b>code: </b>http://loinc.org 26436-6 Laboratory studies (set)</p><p><b>subject: </b>Patient/6388178</p><p><b>effective: </b>2021-12-01T00:00:00+01:00</p><p><b>issued: </b>2021-12-09T12:41:03+01:00</p><p><b>performer: </b>Organization/81365677998</p><p><b>resultsInterpreter: </b>Practitioner/Responsible</p><p><b>specimen: </b> // Specimen/002815333049 // Specimen/001815333049 // </p><p><b>result: </b> // Observation/Observation.1.0.0.0 // Observation/Observation.2.0.0.0 // Observation/Observation.3.0.0.0 // Observation/Observation.4.0.0.0 // </p></div>"},"identifier":[{"system":"https://www.ehealth.fgov.be/lab-report/diagnostic-report-id","value":"81365677998.815333049"}],"basedOn":[{"reference":"ServiceRequest/815333049"}],"status":"preliminary","category":[{"coding":[{"system":"http://terminology.hl7.org/CodeSystem/v2-0074","code":"LAB","display":"Laboratory"}]}],"code":{"coding":[{"system":"http://loinc.org","code":"26436-6","display":"Laboratory studies (set)"}]},"subject":{"reference":"Patient/6388178"},"effectiveDateTime":"2021-12-01T00:00:00+01:00","issued":"2021-12-09T12:41:03+01:00","performer":[{"reference":"Organization/81365677998"}],"resultsInterpreter":[{"reference":"Practitioner/Responsible"}],"specimen":[{"reference":"Specimen/002815333049"},{"reference":"Specimen/001815333049"}],"result":[{"reference":"Observation/Observation.1.0.0.0"},{"reference":"Observation/Observation.2.0.0.0"},{"reference":"Observation/Observation.3.0.0.0"},{"reference":"Observation/Observation.4.0.0.0"}]}},{"fullUrl":"Organization/81365677998","resource":{"resourceType":"Organization","id":"81365677998","meta":{"profile":["https://www.ehealth.fgov.be/standards/fhir/StructureDefinition/be-organization"]},"text":{"status":"generated","div":"<div xmlns=\"http://www.w3.org/1999/xhtml\"><p><b>identifier: </b>81365677998</p><p><b>name: </b>CENTRUM VOOR MEDISCHE ANALYSE</p><p><b>contact: </b>014/28.50.00</p><p><b>address: </b>Oud-Strijderslaan 199 2200 Herentals BE</p></div>"},"identifier":[{"use":"official","type":{"coding":[{"system":"http://terminology.hl7.org/CodeSystem/v2-0203","code":"MD","display":"Medical License number"}]},"system":"https://www.ehealth.fgov.be/standards/fhir/NamingSystem/nihdi","value":"81365677998"},{"use":"official","system":"https://economie.fgov.be/belac","value":"007-MED"}],"active":true,"type":[{"coding":[{"system":"https://www.ehealth.fgov.be/standards/fhir/CodeSystem/cd-hcparty","code":"orglaboratory"}]}],"name":"CENTRUM VOOR MEDISCHE ANALYSE","telecom":[{"system":"phone","value":"014/28.50.00","use":"work"},{"system":"fax","value":"014/22.56.08","use":"work"},{"system":"email","value":"info@cma.be","use":"work"},{"system":"url","value":"http://www.cma.be","use":"work"}],"address":[{"use":"work","type":"both","line":["Oud-Strijderslaan 199"],"city":"Herentals","postalCode":"2200","country":"BE"}]}},{"fullUrl":"Practitioner/8152","resource":{"resourceType":"Practitioner","id":"8152","meta":{"profile":["https://www.ehealth.fgov.be/standards/fhir/StructureDefinition/be-practitioner"]},"text":{"status":"generated","div":"<div xmlns=\"http://www.w3.org/1999/xhtml\"><p><b>identifier: </b>11849242860</p><p><b>name: </b>Waegemans Stefan</p><p><b>contact: </b>stefan.waegemans@cma.be</p><p><b>address: </b>Willekensmolenstraat 88/2 3500 Hasselt BE</p></div>"},"identifier":[{"use":"official","system":"https://www.ehealth.fgov.be/standards/fhir/NamingSystem/nihdi","value":"11849242860"}],"name":[{"use":"official","family":"Waegemans","given":["Stefan"],"prefix":["Dr."]}],"telecom":[{"system":"email","value":"stefan.waegemans@cma.be","use":"work"},{"system":"fax","value":"(+32)11/243291","use":"work"},{"system":"phone","value":"(+32)11/225288","use":"work"}],"address":[{"use":"work","type":"both","line":["Willekensmolenstraat 88/2"],"city":"Hasselt","postalCode":"3500","country":"BE"}],"gender":"unknown"}},{"fullUrl":"Practitioner/Responsible","resource":{"resourceType":"Practitioner","id":"Responsible","meta":{"profile":["https://www.ehealth.fgov.be/standards/fhir/StructureDefinition/be-practitioner"]},"text":{"status":"generated","div":"<div xmlns=\"http://www.w3.org/1999/xhtml\"><p><b>identifier: </b>68071432800</p><p><b>name: </b>Engelen Frans</p><p><b>contact: </b>014/28.50.00</p><p><b>address: </b>Oud-Strijderslaan 199 2200 Herentals BE</p></div>"},"identifier":[{"use":"official","system":"https://www.ehealth.fgov.be/standards/fhir/NamingSystem/nihdi","value":"68071432800"}],"name":[{"use":"official","family":"Engelen","given":["Frans"]}],"telecom":[{"system":"phone","value":"014/28.50.00","use":"work"}],"address":[{"use":"work","type":"both","line":["Oud-Strijderslaan 199"],"city":"Herentals","postalCode":"2200","country":"BE"}],"gender":"unknown"}},{"fullUrl":"Patient/6388178","resource":{"resourceType":"Patient","id":"6388178","meta":{"profile":["https://www.ehealth.fgov.be/standards/fhir/StructureDefinition/be-patient"]},"text":{"status":"generated","div":"<div xmlns=\"http://www.w3.org/1999/xhtml\"><p><b>identifier: </b>01482105560</p><p><b>name: </b>Cozo-Een Testvoornaam</p><p><b>gender: </b>male</p><p><b>birthDate: </b>1901-08-21</p><p><b>address: </b>De Pintelaan 185 9000 Gent BE</p></div>"},"identifier":[{"use":"official","system":"https://www.ehealth.fgov.be/standards/fhir/NamingSystem/ssin","value":"01482105560"}],"active":true,"name":[{"use":"official","family":"Cozo-Een","given":["Testvoornaam"]}],"address":[{"use":"home","type":"both","line":["De Pintelaan 185"],"city":"Gent","postalCode":"9000","country":"BE"}],"gender":"male","birthDate":"1901-08-21"}},{"fullUrl":"ServiceRequest/815333049","resource":{"resourceType":"ServiceRequest","id":"815333049","text":{"status":"generated","div":"<div xmlns=\"http://www.w3.org/1999/xhtml\"><p><b>id: </b>815333049</p><p><b>intent: </b>order</p><p><b>status: </b>active</p><p><b>category: </b>http://snomed.info/sct 108252007 Laboratory procedure</p><p><b>subject: </b>Patient/6388178</p><p><b>requester: </b>Practitioner/8152</p><p><b>authoredOn: </b>2021-12-07T09:09:00+01:00</p></div>"},"identifier":[{"system":"http://www.macsys.be/hl7/ServiceRequest","value":"815333049"}],"status":"active","intent":"order","category":[{"coding":[{"system":"http://snomed.info/sct","code":"108252007","display":"Laboratory procedure"}]}],"subject":{"reference":"Patient/6388178"},"priority":"routine","authoredOn":"2021-12-07T09:09:00+01:00","requester":{"reference":"Practitioner/8152"}}}]}