<?xml version="1.0" encoding="UTF-8"?>
<ServiceRequest xmlns="http://hl7.org/fhir">
	<id value="diagnostic-imaging-basic-example"/>
	<meta>
		<profile
			value="https://www.ehealth.fgov.be/standards/fhir/StructureDefinition/be-referralprescription-diagnosticimaging" />
	</meta>
	<text>
		<status value="generated" />
		<div xmlns="http://www.w3.org/1999/xhtml">A human readable form of the request (in HTML) SHALL be
			provided here to enable systems that cannot process all structured
			data, to at least present the information to the interactive user.
			More information on https://www.hl7.org/fhir/R4/narrative.html
		</div>
	</text>
		<!-- In this example some referenced resources are placed here in <contained> tags to be fully 'contained' 
		within the serviceRequest, depending on the final architectural approach 
		- this may have to be revisited -->
	<contained>
		<Patient xmlns="http://hl7.org/fhir">
			<id value="Patient1" />
			<meta>
				<profile
					value="https://www.ehealth.fgov.be/standards/fhir/StructureDefinition/be-patient" />
			</meta>
			<identifier>
				<use value="official" />
				<system
					value="https://www.ehealth.fgov.be/standards/fhir/NamingSystem/ssin" />
				<value value="9999999999" />
			</identifier>
			<name>
				<family value="Doe" />
				<given value="Jane" />
			</name>
			<gender value="female" />
			<birthDate value="1956-05-27" />
		</Patient>
	</contained>
	<contained>
		<Practitioner xmlns="http://hl7.org/fhir">
			<id value="Requester1" />
				<meta>
				<profile
					value="https://www.ehealth.fgov.be/standards/fhir/StructureDefinition/be-practitioner" />
			</meta>
			<identifier>
				<use value="official" />
				<system
					value="https://www.ehealth.fgov.be/standards/fhir/NamingSystem/nihdi" />
				<value value="8888888888" />
			</identifier>
			<name>
				<use value="official" />
				<family value="Seven" />
				<given value="Henry" />
			</name>
		</Practitioner>
	</contained>
	<contained>
		<Practitioner xmlns="http://hl7.org/fhir">
			<id value="Performer1" />
			<meta>
				<profile
					value="https://www.ehealth.fgov.be/standards/fhir/StructureDefinition/be-practitioner" />
			</meta>
			<identifier>
				<use value="official" />
				<system
					value="https://www.ehealth.fgov.be/standards/fhir/NamingSystem/nihdi" />
				<value value="9876543210" />
			</identifier>
			<name>
				<use value="official" />
				<family value="Lisa" />
				<given value="Hermans" />
			</name>
		</Practitioner>
	</contained>
	<extension
		url="http://hl7.org/fhir/StructureDefinition/request-statusReason">
		<valueCodeableConcept>
			<coding>
				<system
					value="https://www.ehealth.fgov.be/standards/fhir/CodeSystem/be-status-reason" />
				<code value="created" />
				<display value="Created" />
			</coding>
		</valueCodeableConcept>
	</extension>

	<status value="active" />
	<intent value="order" />
	<category>
		<coding>
			<system value="http://snomed.info/sct" />
			<code value="363679005" />
			<display value="Clinical imaging" />
		</coding>
	</category>
	<priority value="routine" />
	<code>
		<coding>
			<system value="http://snomed.info/sct" />
			<code value="2471000087103" />
			<display
				value="Magnetic resonance imaging of left knee (procedure)" />
		</coding>
	</code>
	<subject>
		<reference value="#Patient1" />
	</subject>
	<requester>
		<reference value="#Requester1" />
	</requester>
	<performerType>
		<coding>
			<system value="http://snomed.info/sct" />
			<code value="66862007" />
			<display value="Radiologist" />
		</coding>
	</performerType>
	<performer>
		<reference value="#Performer1" />
	</performer>
	<reasonCode>
		<coding>
			<system value="http://snomed.info/sct" />
			<code value="371081002" />
			<display value="Arthritis of knee" />
		</coding>
		<text
			value="Patient mobility problems. Possibly arthritis of knee" />
	</reasonCode>
</ServiceRequest>
