{"resourceType":"Bundle","type":"document","timestamp":"2021-12-20T15:17:10Z","identifier":{"system":"https://www.ehealth.fgov.be/lab-report/bundle-id","value":"81365677998.815333047.3"},"entry":[{
    "fullUrl": "Composition/815333047",
    "resource": {
        "resourceType": "Composition",
        "id": "815333047",
        "meta": {
            "profile": [
                "https://www.ehealth.fgov.be/standards/fhir/lab/StructureDefinition/be-laboratory-report-composition"
            ]
        },
        "text": {
            "status": "generated",
            "div": "<div xmlns=\"http://www.w3.org/1999/xhtml\"><p><b>id: </b>815333047</p><p><b>status: </b>preliminary</p><p><b>type: </b>http://loinc.org 11502-2 Laboratory report</p><p><b>date: </b>2021-12-20T15:17:10+01:00</p><p><b>author: </b>Practitioner/Responsible</p><p><b>title: </b>Laboratory Report</p></div>"
        },
        "identifier": {
            "system": "http://www.macsys.be/hl7/Composition",
            "value": "815333047"
        },
        "status": "preliminary",
        "type": {
            "coding": [
                {
                    "system": "http://loinc.org",
                    "code": "11502-2"
                }
            ],
            "text": "Laboratory report"
        },
        "subject": {
            "reference": "Patient/7165391"
        },
        "date": "2021-12-20T15:17:10+01:00",
        "author": [
            {
                "reference": "Practitioner/Responsible"
            }
        ],
        "title": "Laboratory Report",
        "section": [
            {
                "entry": [
                    {
                        "reference": "DiagnosticReport/815333047"
                    }
                ]
            }
        ]
    }
}
,{
    "fullUrl": "Specimen/001815333047",
    "resource": {
        "resourceType": "Specimen",
        "id": "001815333047",
        "meta": {
            "profile": [
                "https://www.ehealth.fgov.be/standards/fhir/lab/StructureDefinition/be-specimen-laboratory"
            ]
        },
        "text": {
            "status": "generated",
            "div": "<div xmlns=\"http://www.w3.org/1999/xhtml\"><p><b>id: </b>001815333047</p><p><b>status: </b>available</p><p><b>type: </b>http://terminology.hl7.org/CodeSystem/v2-0487 SER Serum Serum</p><p><b>receivedTime: </b>2021-11-19T12:49:15+01:00</p><p><b>collector: </b>Practitioner/69</p></div>"
        },
        "identifier": [
            {
                "system": "http://www.macsys.be/hl7/Specimen",
                "value": "001815333047"
            }
        ],
        "status": "available",
        "type": {
            "coding": [
                {
                    "system": "http://terminology.hl7.org/CodeSystem/v2-0487",
                    "code": "SER",
                    "display": "Serum"
                }
            ],
            "text": "Serum"
        },
        "subject": {
            "reference": "Patient/7165391"
        },
        "receivedTime": "2021-11-19T12:49:15+01:00",
        "collection": {
            "collectedDateTime": "2021-11-19T00:00:00+01:00",
            "collector": {
                "reference": "Practitioner/69"
            }
        }
    }
}
,{
    "fullUrl": "Observation/Observation.1.0.0.0",
    "resource": {
        "resourceType": "Observation",
        "id": "Observation.1.0.0.0",
        "meta": {
            "profile": [
                "https://www.ehealth.fgov.be/standards/fhir/lab/StructureDefinition/be-observation-laboratory"
            ]
        },
        "text": {
            "status": "generated",
            "div": "<div xmlns=\"http://www.w3.org/1999/xhtml\"><p><b>code: </b>SEROLOGIE</p><p><b>subject: </b>Patient/7165391</p><p><b>effective: </b>2021-11-19T00:00:00+01:00</p><p><b>performer: </b>Practitioner/Responsible</p><p><b>member: </b> // Observation/Observation.1.1.0.0 // </p></div>"
        },
        "status": "preliminary",
        "code": {
            "text": "SEROLOGIE"
        },
        "subject": {
            "reference": "Patient/7165391"
        },
        "effectiveDateTime": "2021-11-19T00:00:00+01:00",
        "performer": [
            {
                "reference": "Practitioner/Responsible"
            }
        ],
        "hasMember": [
            {
                "reference": "Observation/Observation.1.1.0.0"
            }
        ]
    }
}
,{
    "fullUrl": "Observation/Observation.1.1.0.0",
    "resource": {
        "resourceType": "Observation",
        "id": "Observation.1.1.0.0",
        "meta": {
            "profile": [
                "https://www.ehealth.fgov.be/standards/fhir/lab/StructureDefinition/be-observation-laboratory"
            ]
        },
        "text": {
            "status": "generated",
            "div": "<div xmlns=\"http://www.w3.org/1999/xhtml\"><p><b>code: </b>Bacterieel</p><p><b>subject: </b>Patient/7165391</p><p><b>effective: </b>2021-11-19T00:00:00+01:00</p><p><b>performer: </b>Practitioner/Responsible</p><p><b>member: </b> // Observation/Observation.1.1.0.1 // Observation/Observation.1.1.0.2 // Observation/Observation.1.1.0.3 // Observation/Observation.1.1.0.4 // </p></div>"
        },
        "status": "preliminary",
        "code": {
            "text": "Bacterieel"
        },
        "subject": {
            "reference": "Patient/7165391"
        },
        "effectiveDateTime": "2021-11-19T00:00:00+01:00",
        "performer": [
            {
                "reference": "Practitioner/Responsible"
            }
        ],
        "hasMember": [
            {
                "reference": "Observation/Observation.1.1.0.1"
            },
            {
                "reference": "Observation/Observation.1.1.0.2"
            },
            {
                "reference": "Observation/Observation.1.1.0.3"
            },
            {
                "reference": "Observation/Observation.1.1.0.4"
            }
        ]
    }
}
,{
    "fullUrl": "Observation/Observation.1.1.0.1",
    "resource": {
        "resourceType": "Observation",
        "id": "Observation.1.1.0.1",
        "meta": {
            "profile": [
                "https://www.ehealth.fgov.be/standards/fhir/lab/StructureDefinition/be-observation-laboratory"
            ]
        },
        "text": {
            "status": "generated",
            "div": "<div xmlns=\"http://www.w3.org/1999/xhtml\"><p><b>code: </b>http://loinc.org 7817-0 Borrelia burg. IgG</p><p><b>subject: </b>Patient/7165391</p><p><b>effective: </b>2021-11-19T00:00:00+01:00</p><p><b>performer: </b>Practitioner/Responsible</p><p><b>result: </b>Positief</p><p><b>specimen: </b>Specimen/001815333047</p><p><b>note: </b>20,1 AU/mL (Grijze zone: 10,0 - 15,0)\r\nErythema chronicum migrans (ECM) dient behandeld\r\nte worden ongeacht de serologie. Vals positieve\r\nserologie resultaten kunnen uitgesloten worden met\r\nimmunoblot (enkel terugbetaald 1x/kalenderjaar en\r\nin geval</p><p><b>referenceRange: </b> // Negatief // </p></div>"
        },
        "status": "final",
        "code": {
            "coding": [
                {
                    "system": "http://loinc.org",
                    "code": "7817-0"
                }
            ],
            "text": "Borrelia burg. IgG"
        },
        "subject": {
            "reference": "Patient/7165391"
        },
        "effectiveDateTime": "2021-11-19T00:00:00+01:00",
        "issued": "2021-11-19T12:52:11+01:00",
        "performer": [
            {
                "reference": "Practitioner/Responsible"
            }
        ],
        "valueString": "Positief",
        "note": [
            {
                "text": "20,1 AU/mL (Grijze zone: 10,0 - 15,0)\r\nErythema chronicum migrans (ECM) dient behandeld\r\nte worden ongeacht de serologie. Vals positieve\r\nserologie resultaten kunnen uitgesloten worden met\r\nimmunoblot (enkel terugbetaald 1x/kalenderjaar en\r\nin geval van duidelijke klinische tekens;\r\nafzonderlijk aan te vragen indien gewenst)."
            }
        ],
        "specimen": {
            "reference": "Specimen/001815333047"
        },
        "referenceRange": [
            {
                "text": "Negatief"
            }
        ]
    }
}
,{
    "fullUrl": "Observation/Observation.1.1.0.2",
    "resource": {
        "resourceType": "Observation",
        "id": "Observation.1.1.0.2",
        "meta": {
            "profile": [
                "https://www.ehealth.fgov.be/standards/fhir/lab/StructureDefinition/be-observation-laboratory"
            ]
        },
        "text": {
            "status": "generated",
            "div": "<div xmlns=\"http://www.w3.org/1999/xhtml\"><p><b>code: </b>http://loinc.org 7818-8 Borrelia burg. IgM</p><p><b>subject: </b>Patient/7165391</p><p><b>effective: </b>2021-11-19T00:00:00+01:00</p><p><b>performer: </b>Practitioner/Responsible</p><p><b>result: </b>Positief</p><p><b>specimen: </b>Specimen/001815333047</p><p><b>interpretation: </b>H</p><p><b>note: </b>Index: 6,10 (Grijze zone: 0,90 - 1,10)</p><p><b>referenceRange: </b> // Negatief // </p></div>"
        },
        "status": "final",
        "code": {
            "coding": [
                {
                    "system": "http://loinc.org",
                    "code": "7818-8"
                }
            ],
            "text": "Borrelia burg. IgM"
        },
        "subject": {
            "reference": "Patient/7165391"
        },
        "effectiveDateTime": "2021-11-19T00:00:00+01:00",
        "issued": "2021-11-19T12:53:10+01:00",
        "performer": [
            {
                "reference": "Practitioner/Responsible"
            }
        ],
        "valueString": "Positief",
        "interpretation": [
            {
                "coding": [
                    {
                        "system": "http://terminology.hl7.org/CodeSystem/v3-ObservationInterpretation",
                        "code": "H"
                    }
                ]
            }
        ],
        "note": [
            {
                "text": "Index: 6,10 (Grijze zone: 0,90 - 1,10)"
            }
        ],
        "specimen": {
            "reference": "Specimen/001815333047"
        },
        "referenceRange": [
            {
                "text": "Negatief"
            }
        ]
    }
}
,{
    "fullUrl": "Observation/Observation.1.1.0.3",
    "resource": {
        "resourceType": "Observation",
        "id": "Observation.1.1.0.3",
        "meta": {
            "profile": [
                "https://www.ehealth.fgov.be/standards/fhir/lab/StructureDefinition/be-observation-laboratory"
            ]
        },
        "text": {
            "status": "generated",
            "div": "<div xmlns=\"http://www.w3.org/1999/xhtml\"><p><b>code: </b>http://loinc.org 6320-6 Borr. Western Blot IgG</p><p><b>subject: </b>Patient/7165391</p><p><b>effective: </b>2021-11-19T00:00:00+01:00</p><p><b>performer: </b>Practitioner/Responsible</p><p><b>result: </b>Volgt</p></div>"
        },
        "status": "preliminary",
        "code": {
            "coding": [
                {
                    "system": "http://loinc.org",
                    "code": "6320-6"
                }
            ],
            "text": "Borr. Western Blot IgG"
        },
        "subject": {
            "reference": "Patient/7165391"
        },
        "effectiveDateTime": "2021-11-19T00:00:00+01:00",
        "performer": [
            {
                "reference": "Practitioner/Responsible"
            }
        ],
        "valueString": "Volgt"
    }
}
,{
    "fullUrl": "Observation/Observation.1.1.0.4",
    "resource": {
        "resourceType": "Observation",
        "id": "Observation.1.1.0.4",
        "meta": {
            "profile": [
                "https://www.ehealth.fgov.be/standards/fhir/lab/StructureDefinition/be-observation-laboratory"
            ]
        },
        "text": {
            "status": "generated",
            "div": "<div xmlns=\"http://www.w3.org/1999/xhtml\"><p><b>code: </b>http://loinc.org 6321-4 Borr. Western Blot IgM</p><p><b>subject: </b>Patient/7165391</p><p><b>effective: </b>2021-11-19T00:00:00+01:00</p><p><b>performer: </b>Practitioner/Responsible</p><p><b>result: </b>Volgt</p></div>"
        },
        "status": "preliminary",
        "code": {
            "coding": [
                {
                    "system": "http://loinc.org",
                    "code": "6321-4"
                }
            ],
            "text": "Borr. Western Blot IgM"
        },
        "subject": {
            "reference": "Patient/7165391"
        },
        "effectiveDateTime": "2021-11-19T00:00:00+01:00",
        "performer": [
            {
                "reference": "Practitioner/Responsible"
            }
        ],
        "valueString": "Volgt"
    }
}
,{
    "fullUrl": "DiagnosticReport/815333047",
    "resource": {
        "resourceType": "DiagnosticReport",
        "id": "815333047",
        "meta": {
            "versionId": "3",
            "profile": [
                "https://www.ehealth.fgov.be/standards/fhir/lab/StructureDefinition/be-laboratory-report"
            ]
        },
        "language": "nl",
        "text": {
            "status": "generated",
            "div": "<div xmlns=\"http://www.w3.org/1999/xhtml\" xml:lang=\"nl\" lang=\"nl\"><p><b>id: </b>815333047</p><p><b>basedOn: </b>ServiceRequest/815333047</p><p><b>status: </b>preliminary</p><p><b>category: </b>http://terminology.hl7.org/CodeSystem/v2-0074 LAB Laboratory</p><p><b>code: </b>http://loinc.org 11502-2 Laboratory report</p><p><b>subject: </b>Patient/7165391</p><p><b>effective: </b>2021-11-19T00:00:00+01:00</p><p><b>issued: </b>2021-12-20T15:17:10+01:00</p><p><b>performer: </b>Organization/81365677998</p><p><b>resultsInterpreter: </b>Practitioner/Responsible</p><p><b>specimen: </b> // Specimen/001815333047 // </p><p><b>result: </b> // Observation/Observation.1.0.0.0 // </p></div>"
        },
        "identifier": [
            {
                "system": "https://www.ehealth.fgov.be/lab-report/diagnostic-report-id",
                "value": "81365677998.815333047"
            }
        ],
        "basedOn": [
            {
                "reference": "ServiceRequest/815333047"
            }
        ],
        "status": "preliminary",
        "category": [
            {
                "coding": [
                    {
                        "system": "http://terminology.hl7.org/CodeSystem/v2-0074",
                        "code": "LAB",
                        "display": "Laboratory"
                    }
                ]
            }
        ],
        "code": {
            "coding": [
                {
                    "system": "http://loinc.org",
                    "code": "11502-2",
                    "display": "Laboratory report"
                }
            ]
        },
        "subject": {
            "reference": "Patient/7165391"
        },
        "effectiveDateTime": "2021-11-19T00:00:00+01:00",
        "issued": "2021-12-20T15:17:10+01:00",
        "performer": [
            {
                "reference": "Organization/81365677998"
            }
        ],
        "resultsInterpreter": [
            {
                "reference": "Practitioner/Responsible"
            }
        ],
        "specimen": [
            {
                "reference": "Specimen/001815333047"
            }
        ],
        "result": [
            {
                "reference": "Observation/Observation.1.0.0.0"
            }
        ],
        "presentedForm": [
            {
                "contentType": "application/pdf",
                "data": "",
                "title": "PDF protocol"
            }
        ]
    }
}
,{
    "fullUrl": "Organization/81365677998",
    "resource": {
        "resourceType": "Organization",
        "id": "81365677998",
        "meta": {
            "profile": [
                "https://www.ehealth.fgov.be/standards/fhir/core/StructureDefinition/be-organization"
            ]
        },
        "text": {
            "status": "generated",
            "div": "<div xmlns=\"http://www.w3.org/1999/xhtml\"><p><b>identifier: </b>81365677998</p><p><b>name: </b>CENTRUM VOOR MEDISCHE ANALYSE</p><p><b>contact: </b>014/28.50.00</p><p><b>address: </b>Oud-Strijderslaan 199 2200 Herentals BE</p></div>"
        },
        "identifier": [
            {
                "use": "official",
                "type": {
                    "coding": [
                        {
                            "system": "http://terminology.hl7.org/CodeSystem/v2-0203",
                            "code": "MD",
                            "display": "Medical License number"
                        }
                    ]
                },
                "system": "https://www.ehealth.fgov.be/standards/fhir/core/NamingSystem/nihdi",
                "value": "81365677998"
            }
        ],
        "active": true,
        "type": [
            {
                "coding": [
                    {
                        "system": "https://www.ehealth.fgov.be/standards/fhir/lab/CodeSystem/cd-hcparty",
                        "code": "orglaboratory"
                    }
                ]
            }
        ],
        "name": "CENTRUM VOOR MEDISCHE ANALYSE",
        "telecom": [
            {
                "system": "phone",
                "value": "014/28.50.00",
                "use": "work"
            },
            {
                "system": "fax",
                "value": "014/22.56.08",
                "use": "work"
            },
            {
                "system": "email",
                "value": "info@cma.be",
                "use": "work"
            },
            {
                "system": "url",
                "value": "http://www.cma.be",
                "use": "work"
            }
        ],
        "address": [
            {
                "use": "work",
                "type": "both",
                "line": [
                    "Oud-Strijderslaan 199"
                ],
                "city": "Herentals",
                "postalCode": "2200",
                "country": "BE"
            }
        ]
    }
}
,{
    "fullUrl": "Practitioner/69",
    "resource": {
        "resourceType": "Practitioner",
        "id": "69",
        "meta": {
            "profile": [
                "https://www.ehealth.fgov.be/standards/fhir/core/StructureDefinition/be-practitioner"
            ]
        },
        "text": {
            "status": "generated",
            "div": "<div xmlns=\"http://www.w3.org/1999/xhtml\"><p><b>identifier: </b>10000007999</p><p><b>name: </b>Cma - Herentals Fhir</p><p><b>contact: </b>info@cma.be</p><p><b>address: </b>Oud-Strijderslaan 199 2200 Herentals BE</p></div>"
        },
        "identifier": [
            {
                "use": "official",
                "system": "https://www.ehealth.fgov.be/standards/fhir/core/NamingSystem/nihdi",
                "value": "10000007999"
            }
        ],
        "name": [
            {
                "use": "official",
                "family": "Cma - Herentals",
                "given": [
                    "Fhir"
                ],
                "prefix": [
                    "Dr."
                ]
            }
        ],
        "telecom": [
            {
                "system": "email",
                "value": "info@cma.be",
                "use": "work"
            },
            {
                "system": "fax",
                "value": "(+32)14/225608",
                "use": "work"
            },
            {
                "system": "phone",
                "value": "(+32)14/285000",
                "use": "work"
            }
        ],
        "address": [
            {
                "use": "work",
                "type": "both",
                "line": [
                    "Oud-Strijderslaan 199"
                ],
                "city": "Herentals",
                "postalCode": "2200",
                "country": "BE"
            }
        ],
        "gender": "unknown"
    }
}
,{
    "fullUrl": "Practitioner/Responsible",
    "resource": {
        "resourceType": "Practitioner",
        "id": "Responsible",
        "meta": {
            "profile": [
                "https://www.ehealth.fgov.be/standards/fhir/core/StructureDefinition/be-practitioner"
            ]
        },
        "text": {
            "status": "generated",
            "div": "<div xmlns=\"http://www.w3.org/1999/xhtml\"><p><b>identifier: </b>68071432800</p><p><b>name: </b>Engelen Frans</p><p><b>contact: </b>014/28.50.00</p><p><b>address: </b>Oud-Strijderslaan 199 2200 Herentals BE</p></div>"
        },
        "identifier": [
            {
                "use": "official",
                "system": "https://www.ehealth.fgov.be/standards/fhir/core/NamingSystem/nihdi",
                "value": "68071432800"
            }
        ],
        "name": [
            {
                "use": "official",
                "family": "Engelen",
                "given": [
                    "Frans"
                ]
            }
        ],
        "telecom": [
            {
                "system": "phone",
                "value": "014/28.50.00",
                "use": "work"
            }
        ],
        "address": [
            {
                "use": "work",
                "type": "both",
                "line": [
                    "Oud-Strijderslaan 199"
                ],
                "city": "Herentals",
                "postalCode": "2200",
                "country": "BE"
            }
        ],
        "gender": "unknown"
    }
}
,{
    "fullUrl": "Patient/7165391",
    "resource": {
        "resourceType": "Patient",
        "id": "7165391",
        "meta": {
            "profile": [
                "https://www.ehealth.fgov.be/standards/fhir/core/StructureDefinition/be-patient"
            ]
        },
        "text": {
            "status": "generated",
            "div": "<div xmlns=\"http://www.w3.org/1999/xhtml\"><p><b>identifier: </b>15010199802</p><p><b>name: </b>Lastname Firstname Young</p><p><b>gender: </b>female</p><p><b>birthDate: </b>2015-01-01</p><p><b>address: </b>Oud-Strijderslaan 199 2200 Herentals BE</p></div>"
        },
        "identifier": [
            {
                "use": "official",
                "system": "https://www.ehealth.fgov.be/standards/fhir/NamingSystem/ssin",
                "value": "15010199802"
            }
        ],
        "active": true,
        "name": [
            {
                "use": "official",
                "family": "Lastname",
                "given": [
                    "Firstname Young"
                ]
            }
        ],
        "address": [
            {
                "use": "home",
                "type": "both",
                "line": [
                    "Oud-Strijderslaan 199"
                ],
                "city": "Herentals",
                "postalCode": "2200",
                "country": "BE"
            }
        ],
        "gender": "female",
        "birthDate": "2015-01-01"
    }
}
,{
    "fullUrl": "ServiceRequest/815333047",
    "resource": {
        "resourceType": "ServiceRequest",
        "id": "815333047",
        "text": {
            "status": "generated",
            "div": "<div xmlns=\"http://www.w3.org/1999/xhtml\"><p><b>id: </b>815333047</p><p><b>intent: </b>order</p><p><b>status: </b>active</p><p><b>category: </b>http://snomed.info/sct 108252007 Laboratory procedure</p><p><b>subject: </b>Patient/7165391</p><p><b>requester: </b>Practitioner/69</p><p><b>authoredOn: </b>2021-11-19T12:49:00+01:00</p></div>"
        },
        "identifier": [
            {
                "system": "http://www.macsys.be/hl7/ServiceRequest",
                "value": "815333047"
            }
        ],
        "status": "active",
        "intent": "order",
        "category": [
            {
                "coding": [
                    {
                        "system": "http://snomed.info/sct",
                        "code": "108252007",
                        "display": "Laboratory procedure"
                    }
                ]
            }
        ],
        "subject": {
            "reference": "Patient/7165391"
        },
        "priority": "routine",
        "authoredOn": "2021-11-19T12:49:00+01:00",
        "requester": {
            "reference": "Practitioner/69"
        }
    }
}
]}