{
  "resourceType": "Bundle",
  "identifier": {
    "system": "https://www.ehealth.fgov.be/hl7/bundle",
    "value": "e5393306-b11c-4c5d-8630-ed5d306e294d"
  },
  "type": "document",
  "timestamp": "2022-04-06T10:35:19.970+02:00",
  "entry": [ {
    "fullUrl": "Composition/35318325",
    "resource": {
      "resourceType": "Composition",
      "id": "35318325",
      "meta": {
        "profile": [ "https://www.ehealth.fgov.be/standards/fhir/StructureDefinition/be-laboratory-report-composition" ]
      },
      "text": {
        "status": "empty",
        "div": "<div xmlns=\"http://www.w3.org/1999/xhtml\">empty</div>"
      },
      "identifier": {
        "system": "https://www.ehealth.fgov.be/lab-report/diagnostic-report-id",
        "value": "e5393306-b11c-4c5d-8630-ed5d306e294d"
      },
      "status": "final",
      "type": {
        "coding": [ {
          "system": "http://loinc.org",
          "code": "11502-2",
          "display": "Laboratory report"
        } ]
      },
      "subject": {
        "reference": "Patient/405636"
      },
      "date": "2022-04-06T10:35:19+02:00",
      "author": [ {
        "reference": "Organization/4335"
      } ],
      "title": "Laboratory Report",
      "section": [ {
        "entry": [ {
          "reference": "DiagnosticReport/35318325"
        } ]
      } ]
    }
  }, {
    "fullUrl": "DiagnosticReport/35318325",
    "resource": {
      "resourceType": "DiagnosticReport",
      "id": "35318325",
      "meta": {
        "versionId": "4",
        "profile": [ "https://www.ehealth.fgov.be/standards/fhir/StructureDefinition/be-laboratory-report" ]
      },
      "text": {
        "status": "empty",
        "div": "<div xmlns=\"http://www.w3.org/1999/xhtml\">empty</div>"
      },
      "extension": [ {
        "url": "https://www.ehealth.fgov.be/standards/fhir/StructureDefinition/be-ext-note",
        "valueAnnotation": {
          "text": "Labgids: labo.uzgent.be"
        }
      }, {
        "url": "https://www.ehealth.fgov.be/standards/fhir/StructureDefinition/be-ext-note",
        "valueAnnotation": {
          "text": "Uitslagen: 09-332.34.34"
        }
      }, {
        "url": "https://www.ehealth.fgov.be/standards/fhir/StructureDefinition/be-ext-note",
        "valueAnnotation": {
          "text": "Elektronisch gehandtekend door: Dr. apr. biol. Oyaert Matthijs, Prof. dr. Verstraete Alain, Prof. dr. Padalko Elizaveta"
        }
      } ],
      "identifier": [ {
        "system": "https://www.ehealth.fgov.be/lab-report/diagnostic-report-id",
        "value": "e5393306-b11c-4c5d-8630-ed5d306e294d"
      } ],
      "basedOn": [ {
        "reference": "ServiceRequest/220320-1003"
      } ],
      "status": "corrected",
      "category": [ {
        "coding": [ {
          "system": "http://terminology.hl7.org/CodeSystem/v2-0074",
          "code": "LAB",
          "display": "Laboratory"
        } ]
      } ],
      "code": {
        "coding": [ {
          "system": "http://loinc.org",
          "code": "11502-2"
        } ]
      },
      "subject": {
        "reference": "Patient/405636"
      },
      "effectiveDateTime": "2022-04-06T10:35:19+02:00",
      "issued": "2022-04-06T10:35:15.000+02:00",
      "performer": [ {
        "reference": "Organization/4335"
      } ],
      "resultsInterpreter": [ {
        "reference": "Practitioner/65175"
      } ],
      "specimen": [ {
        "reference": "Specimen/220320100306"
      }, {
        "reference": "Specimen/220320100305"
      }, {
        "reference": "Specimen/220320100304"
      }, {
        "reference": "Specimen/220320100301"
      }, {
        "reference": "Specimen/220320100307"
      }, {
        "reference": "Specimen/220320100303"
      }, {
        "reference": "Specimen/220320100308"
      }, {
        "reference": "Specimen/220320100310"
      } ],
      "result": [ {
        "reference": "Observation/389060987"
      }, {
        "reference": "Observation/389060981"
      }, {
        "reference": "Observation/be786a38-4f61-4866-953f-8acc2cc8eae3"
      }, {
        "reference": "Observation/5193e8cc-615d-44a6-b32d-e9e51808e304"
      }, {
        "reference": "Observation/b8ff5c6f-10b6-4898-b728-56b5ac99e5ab"
      }, {
        "reference": "Observation/79bf968d-b4a3-452a-b0ad-9318c35242b1"
      }, {
        "reference": "Observation/771fb582-8a3a-4165-9c22-adc79f4d0ac8"
      }, {
        "reference": "Observation/25355bf1-3b73-41c8-a334-6fd1cf0c7e0a"
      }, {
        "reference": "Observation/3ab9ce41-d61b-4271-bda6-0ef87502c19a"
      }, {
        "reference": "Observation/5c2a9ddf-7876-4304-a718-31b8c256ea98"
      } ]
    }
  }, {
    "fullUrl": "Patient/405636",
    "resource": {
      "resourceType": "Patient",
      "id": "405636",
      "meta": {
        "versionId": "1",
        "profile": [ "https://www.ehealth.fgov.be/standards/fhir/StructureDefinition/be-patient" ]
      },
      "text": {
        "status": "empty",
        "div": "<div xmlns=\"http://www.w3.org/1999/xhtml\">empty</div>"
      },
      "identifier": [ {
        "system": "https://www.ehealth.fgov.be/standards/fhir/NamingSystem/ssin",
        "value": "11111102504"
      } ],
      "name": [ {
        "family": "Xchelpdesk",
        "given": [ "Nn" ]
      } ],
      "telecom": [ {
        "system": "phone",
        "value": "092402111"
      }, {
        "system": "phone",
        "value": "04973565151"
      }, {
        "system": "email",
        "value": "debeule.dirk@gmail.com"
      } ],
      "gender": "female",
      "birthDate": "1911-11-11",
      "address": [ {
        "line": [ "Corneel Heymanslaan 10" ],
        "city": "GENT",
        "postalCode": "9000",
        "country": "B"
      } ],
      "generalPractitioner": [ {
        "reference": "Practitioner/147772"
      } ]
    }
  }, {
    "fullUrl": "ServiceRequest/220320-1003",
    "resource": {
      "resourceType": "ServiceRequest",
      "id": "220320-1003",
      "text": {
        "status": "empty",
        "div": "<div xmlns=\"http://www.w3.org/1999/xhtml\">empty</div>"
      },
      "identifier": [ {
        "system": "https://mips.be/UZG",
        "value": "220320-1003"
      } ],
      "status": "active",
      "intent": "order",
      "priority": "routine",
      "subject": {
        "reference": "Patient/405636"
      },
      "authoredOn": "2022-03-15T16:21:00+01:00",
      "requester": {
        "reference": "Practitioner/65175"
      },
      "note": [ {
        "text": "Copy to Stove Veronique"
      } ]
    }
  }, {
    "fullUrl": "Practitioner/147772",
    "resource": {
      "resourceType": "Practitioner",
      "id": "147772",
      "meta": {
        "versionId": "1",
        "profile": [ "https://www.ehealth.fgov.be/standards/fhir/StructureDefinition/be-practitioner" ]
      },
      "text": {
        "status": "empty",
        "div": "<div xmlns=\"http://www.w3.org/1999/xhtml\">empty</div>"
      },
      "identifier": [ {
        "system": "https://www.ehealth.fgov.be/standards/fhir/NamingSystem/nihdi",
        "value": "1-12621-93-583"
      } ],
      "name": [ {
        "family": "Abs",
        "given": [ "Roger" ],
        "prefix": [ "Dr." ]
      } ],
      "telecom": [ {
        "system": "fax"
      } ],
      "address": [ {
        "line": [ "Bourcetstraat 35" ],
        "city": "BERCHEM (ANTWERPEN)",
        "postalCode": "2600",
        "country": "B"
      } ],
      "gender": "unknown"
    }
  }, {
    "fullUrl": "Practitioner/65175",
    "resource": {
      "resourceType": "Practitioner",
      "id": "65175",
      "meta": {
        "versionId": "1",
        "profile": [ "https://www.ehealth.fgov.be/standards/fhir/StructureDefinition/be-practitioner" ]
      },
      "text": {
        "status": "empty",
        "div": "<div xmlns=\"http://www.w3.org/1999/xhtml\">empty</div>"
      },
      "identifier": [ {
        "system": "https://www.ehealth.fgov.be/standards/fhir/NamingSystem/nihdi",
        "value": "1-45720-71-862"
      } ],
      "name": [ {
        "family": "Fiers",
        "given": [ "Tom" ],
        "prefix": [ "Dr." ]
      } ],
      "telecom": [ {
        "system": "fax"
      }, {
        "system": "email",
        "value": "tom.fiers@uzgent.be"
      } ],
      "address": [ {
        "line": [ "Klinische biologie UZ Gent" ],
        "city": "GENT",
        "postalCode": "9000",
        "country": "B"
      } ],
      "gender": "unknown"
    }
  }, {
    "fullUrl": "Organization/4335",
    "resource": {
      "resourceType": "Organization",
      "id": "4335",
      "text": {
        "status": "empty",
        "div": "<div xmlns=\"http://www.w3.org/1999/xhtml\">empty</div>"
      },
      "identifier": [ {
        "system": "https://www.ehealth.fgov.be/standards/fhir/NamingSystem/nihdi",
        "value": "8-44700-73-998"
      } ],
      "name": "Lab UZGent",
      "telecom": [ {
        "system": "phone",
        "value": "09/2406310"
      }, {
        "system": "fax",
        "value": "092404985"
      } ],
      "address": [ {
        "line": [ "C. Heymanslaan 10" ],
        "city": "GENT",
        "postalCode": "9000",
        "country": "B"
      } ]
    }
  }, {
    "fullUrl": "Observation/e3539162-3b0e-4ba6-90e5-fdbf14ad869b",
    "resource": {
      "resourceType": "Observation",
      "id": "e3539162-3b0e-4ba6-90e5-fdbf14ad869b",
      "meta": {
        "versionId": "1",
        "profile": [ "https://www.ehealth.fgov.be/standards/fhir/StructureDefinition/be-observation-laboratory" ]
      },
      "text": {
        "status": "empty",
        "div": "<div xmlns=\"http://www.w3.org/1999/xhtml\">empty</div>"
      },
      "status": "unknown",
      "code": {
        "text": "Screening"
      },
      "subject": {
        "reference": "Patient/405636"
      },
      "hasMember": [ {
        "reference": "Observation/389060976"
      } ]
    }
  }, {
    "fullUrl": "Observation/be786a38-4f61-4866-953f-8acc2cc8eae3",
    "resource": {
      "resourceType": "Observation",
      "id": "be786a38-4f61-4866-953f-8acc2cc8eae3",
      "meta": {
        "versionId": "1",
        "profile": [ "https://www.ehealth.fgov.be/standards/fhir/StructureDefinition/be-observation-laboratory" ]
      },
      "text": {
        "status": "empty",
        "div": "<div xmlns=\"http://www.w3.org/1999/xhtml\">empty</div>"
      },
      "status": "unknown",
      "code": {
        "coding": [ {
          "system": "http://loinc.org",
          "code": "18723-7"
        } ],
        "text": "HEMATOLOGIE"
      },
      "subject": {
        "reference": "Patient/405636"
      },
      "hasMember": [ {
        "reference": "Observation/e3539162-3b0e-4ba6-90e5-fdbf14ad869b"
      } ]
    }
  }, {
    "fullUrl": "Observation/7e536126-a24b-4550-8278-d475c06a93b0",
    "resource": {
      "resourceType": "Observation",
      "id": "7e536126-a24b-4550-8278-d475c06a93b0",
      "meta": {
        "versionId": "1",
        "profile": [ "https://www.ehealth.fgov.be/standards/fhir/StructureDefinition/be-observation-laboratory" ]
      },
      "text": {
        "status": "empty",
        "div": "<div xmlns=\"http://www.w3.org/1999/xhtml\">empty</div>"
      },
      "status": "unknown",
      "code": {
        "text": "Screening"
      },
      "subject": {
        "reference": "Patient/405636"
      },
      "hasMember": [ {
        "reference": "Observation/389060975"
      } ]
    }
  }, {
    "fullUrl": "Observation/5193e8cc-615d-44a6-b32d-e9e51808e304",
    "resource": {
      "resourceType": "Observation",
      "id": "5193e8cc-615d-44a6-b32d-e9e51808e304",
      "meta": {
        "versionId": "1",
        "profile": [ "https://www.ehealth.fgov.be/standards/fhir/StructureDefinition/be-observation-laboratory" ]
      },
      "text": {
        "status": "empty",
        "div": "<div xmlns=\"http://www.w3.org/1999/xhtml\">empty</div>"
      },
      "status": "unknown",
      "code": {
        "coding": [ {
          "system": "http://loinc.org",
          "code": "18720-3"
        } ],
        "text": "BLOEDSTOLLING"
      },
      "subject": {
        "reference": "Patient/405636"
      },
      "hasMember": [ {
        "reference": "Observation/7e536126-a24b-4550-8278-d475c06a93b0"
      } ]
    }
  }, {
    "fullUrl": "Observation/1caa8698-d6a6-46af-a150-d42673b51843",
    "resource": {
      "resourceType": "Observation",
      "id": "1caa8698-d6a6-46af-a150-d42673b51843",
      "meta": {
        "versionId": "1",
        "profile": [ "https://www.ehealth.fgov.be/standards/fhir/StructureDefinition/be-observation-laboratory" ]
      },
      "text": {
        "status": "empty",
        "div": "<div xmlns=\"http://www.w3.org/1999/xhtml\">empty</div>"
      },
      "status": "unknown",
      "code": {
        "coding": [ {
          "system": "http://loinc.org",
          "code": "18767-4"
        } ],
        "text": "Bloedgassen"
      },
      "subject": {
        "reference": "Patient/405636"
      },
      "hasMember": [ {
        "reference": "Observation/389060974"
      } ]
    }
  }, {
    "fullUrl": "Observation/b8ff5c6f-10b6-4898-b728-56b5ac99e5ab",
    "resource": {
      "resourceType": "Observation",
      "id": "b8ff5c6f-10b6-4898-b728-56b5ac99e5ab",
      "meta": {
        "versionId": "1",
        "profile": [ "https://www.ehealth.fgov.be/standards/fhir/StructureDefinition/be-observation-laboratory" ]
      },
      "text": {
        "status": "empty",
        "div": "<div xmlns=\"http://www.w3.org/1999/xhtml\">empty</div>"
      },
      "status": "unknown",
      "code": {
        "coding": [ {
          "system": "http://loinc.org",
          "code": "18719-5"
        } ],
        "text": "SCHEIKUNDE"
      },
      "subject": {
        "reference": "Patient/405636"
      },
      "hasMember": [ {
        "reference": "Observation/1caa8698-d6a6-46af-a150-d42673b51843"
      } ]
    }
  }, {
    "fullUrl": "Observation/eabf066f-872c-4f55-8e46-f25f628be5e5",
    "resource": {
      "resourceType": "Observation",
      "id": "eabf066f-872c-4f55-8e46-f25f628be5e5",
      "meta": {
        "versionId": "1",
        "profile": [ "https://www.ehealth.fgov.be/standards/fhir/StructureDefinition/be-observation-laboratory" ]
      },
      "text": {
        "status": "empty",
        "div": "<div xmlns=\"http://www.w3.org/1999/xhtml\">empty</div>"
      },
      "status": "unknown",
      "code": {
        "text": "Ionen"
      },
      "subject": {
        "reference": "Patient/405636"
      },
      "hasMember": [ {
        "reference": "Observation/389060859"
      }, {
        "reference": "Observation/389060860"
      }, {
        "reference": "Observation/389060862"
      } ]
    }
  }, {
    "fullUrl": "Observation/d9192d18-d5de-424a-a129-3738f8ab529d",
    "resource": {
      "resourceType": "Observation",
      "id": "d9192d18-d5de-424a-a129-3738f8ab529d",
      "meta": {
        "versionId": "1",
        "profile": [ "https://www.ehealth.fgov.be/standards/fhir/StructureDefinition/be-observation-laboratory" ]
      },
      "text": {
        "status": "empty",
        "div": "<div xmlns=\"http://www.w3.org/1999/xhtml\">empty</div>"
      },
      "status": "unknown",
      "code": {
        "text": "Eiwitten"
      },
      "subject": {
        "reference": "Patient/405636"
      },
      "hasMember": [ {
        "reference": "Observation/389060861"
      } ]
    }
  }, {
    "fullUrl": "Observation/f66201d0-979a-4a6c-a9c2-0f75a917c9b4",
    "resource": {
      "resourceType": "Observation",
      "id": "f66201d0-979a-4a6c-a9c2-0f75a917c9b4",
      "meta": {
        "versionId": "1",
        "profile": [ "https://www.ehealth.fgov.be/standards/fhir/StructureDefinition/be-observation-laboratory" ]
      },
      "text": {
        "status": "empty",
        "div": "<div xmlns=\"http://www.w3.org/1999/xhtml\">empty</div>"
      },
      "status": "unknown",
      "code": {
        "coding": [ {
          "system": "http://loinc.org",
          "code": "18729-4"
        } ],
        "text": "Urine"
      },
      "subject": {
        "reference": "Patient/405636"
      },
      "hasMember": [ {
        "reference": "Observation/eabf066f-872c-4f55-8e46-f25f628be5e5"
      }, {
        "reference": "Observation/d9192d18-d5de-424a-a129-3738f8ab529d"
      } ]
    }
  }, {
    "fullUrl": "Observation/79bf968d-b4a3-452a-b0ad-9318c35242b1",
    "resource": {
      "resourceType": "Observation",
      "id": "79bf968d-b4a3-452a-b0ad-9318c35242b1",
      "meta": {
        "versionId": "1",
        "profile": [ "https://www.ehealth.fgov.be/standards/fhir/StructureDefinition/be-observation-laboratory" ]
      },
      "text": {
        "status": "empty",
        "div": "<div xmlns=\"http://www.w3.org/1999/xhtml\">empty</div>"
      },
      "status": "unknown",
      "code": {
        "text": "ANDERE LICHAAMSVOCHTEN"
      },
      "subject": {
        "reference": "Patient/405636"
      },
      "hasMember": [ {
        "reference": "Observation/f66201d0-979a-4a6c-a9c2-0f75a917c9b4"
      } ]
    }
  }, {
    "fullUrl": "Observation/7c0d1f42-de67-411d-a347-8e195081bd71",
    "resource": {
      "resourceType": "Observation",
      "id": "7c0d1f42-de67-411d-a347-8e195081bd71",
      "meta": {
        "versionId": "1",
        "profile": [ "https://www.ehealth.fgov.be/standards/fhir/StructureDefinition/be-observation-laboratory" ]
      },
      "text": {
        "status": "empty",
        "div": "<div xmlns=\"http://www.w3.org/1999/xhtml\">empty</div>"
      },
      "status": "unknown",
      "code": {
        "text": "Hart glycosiden"
      },
      "subject": {
        "reference": "Patient/405636"
      },
      "hasMember": [ {
        "reference": "Observation/389060977"
      } ]
    }
  }, {
    "fullUrl": "Observation/771fb582-8a3a-4165-9c22-adc79f4d0ac8",
    "resource": {
      "resourceType": "Observation",
      "id": "771fb582-8a3a-4165-9c22-adc79f4d0ac8",
      "meta": {
        "versionId": "1",
        "profile": [ "https://www.ehealth.fgov.be/standards/fhir/StructureDefinition/be-observation-laboratory" ]
      },
      "text": {
        "status": "empty",
        "div": "<div xmlns=\"http://www.w3.org/1999/xhtml\">empty</div>"
      },
      "status": "unknown",
      "code": {
        "coding": [ {
          "system": "http://loinc.org",
          "code": "18721-1"
        } ],
        "text": "DRUG MONITORING"
      },
      "subject": {
        "reference": "Patient/405636"
      },
      "hasMember": [ {
        "reference": "Observation/7c0d1f42-de67-411d-a347-8e195081bd71"
      } ]
    }
  }, {
    "fullUrl": "Observation/0f4f6d49-505e-442b-a3b0-c1996c8d6f0b",
    "resource": {
      "resourceType": "Observation",
      "id": "0f4f6d49-505e-442b-a3b0-c1996c8d6f0b",
      "meta": {
        "versionId": "1",
        "profile": [ "https://www.ehealth.fgov.be/standards/fhir/StructureDefinition/be-observation-laboratory" ]
      },
      "text": {
        "status": "empty",
        "div": "<div xmlns=\"http://www.w3.org/1999/xhtml\">empty</div>"
      },
      "status": "unknown",
      "code": {
        "text": "Schildklierparameters en calcitonine"
      },
      "subject": {
        "reference": "Patient/405636"
      },
      "hasMember": [ {
        "reference": "Observation/389061020"
      } ]
    }
  }, {
    "fullUrl": "Observation/f625550f-9660-463d-b7f3-a282fa57507a",
    "resource": {
      "resourceType": "Observation",
      "id": "f625550f-9660-463d-b7f3-a282fa57507a",
      "meta": {
        "versionId": "1",
        "profile": [ "https://www.ehealth.fgov.be/standards/fhir/StructureDefinition/be-observation-laboratory" ]
      },
      "text": {
        "status": "empty",
        "div": "<div xmlns=\"http://www.w3.org/1999/xhtml\">empty</div>"
      },
      "status": "unknown",
      "code": {
        "text": "Ovariële cyclus en fertiliteit"
      },
      "subject": {
        "reference": "Patient/405636"
      },
      "hasMember": [ {
        "reference": "Observation/389060973"
      }, {
        "reference": "Observation/389060972"
      }, {
        "reference": "Observation/389060971"
      } ]
    }
  }, {
    "fullUrl": "Observation/25355bf1-3b73-41c8-a334-6fd1cf0c7e0a",
    "resource": {
      "resourceType": "Observation",
      "id": "25355bf1-3b73-41c8-a334-6fd1cf0c7e0a",
      "meta": {
        "versionId": "1",
        "profile": [ "https://www.ehealth.fgov.be/standards/fhir/StructureDefinition/be-observation-laboratory" ]
      },
      "text": {
        "status": "empty",
        "div": "<div xmlns=\"http://www.w3.org/1999/xhtml\">empty</div>"
      },
      "status": "unknown",
      "code": {
        "text": "HORMONOLOGIE"
      },
      "subject": {
        "reference": "Patient/405636"
      },
      "hasMember": [ {
        "reference": "Observation/0f4f6d49-505e-442b-a3b0-c1996c8d6f0b"
      }, {
        "reference": "Observation/f625550f-9660-463d-b7f3-a282fa57507a"
      } ]
    }
  }, {
    "fullUrl": "Observation/3ab9ce41-d61b-4271-bda6-0ef87502c19a",
    "resource": {
      "resourceType": "Observation",
      "id": "3ab9ce41-d61b-4271-bda6-0ef87502c19a",
      "meta": {
        "versionId": "1",
        "profile": [ "https://www.ehealth.fgov.be/standards/fhir/StructureDefinition/be-observation-laboratory" ]
      },
      "text": {
        "status": "empty",
        "div": "<div xmlns=\"http://www.w3.org/1999/xhtml\">empty</div>"
      },
      "status": "unknown",
      "code": {
        "coding": [ {
          "system": "http://loinc.org",
          "code": "18727-8"
        } ],
        "text": "INFECTIEUZE SEROLOGIE"
      },
      "subject": {
        "reference": "Patient/405636"
      },
      "hasMember": [ {
        "reference": "Observation/389060980"
      }, {
        "reference": "Observation/389060978"
      }, {
        "reference": "Observation/389060979"
      }, {
        "reference": "Observation/389060983"
      } ]
    }
  }, {
    "fullUrl": "Observation/5c2a9ddf-7876-4304-a718-31b8c256ea98",
    "resource": {
      "resourceType": "Observation",
      "id": "5c2a9ddf-7876-4304-a718-31b8c256ea98",
      "meta": {
        "versionId": "1",
        "profile": [ "https://www.ehealth.fgov.be/standards/fhir/StructureDefinition/be-observation-laboratory" ]
      },
      "text": {
        "status": "empty",
        "div": "<div xmlns=\"http://www.w3.org/1999/xhtml\">empty</div>"
      },
      "status": "unknown",
      "code": {
        "text": "VIRUSDETECTIE, ANTIGEENDETECTIE EN GENOOM DETECTIE (DNA/RNA)"
      },
      "subject": {
        "reference": "Patient/405636"
      },
      "hasMember": [ {
        "reference": "Observation/389060982"
      } ]
    }
  }, {
    "fullUrl": "ServiceRequest/275723097",
    "resource": {
      "resourceType": "ServiceRequest",
      "id": "275723097",
      "text": {
        "status": "empty",
        "div": "<div xmlns=\"http://www.w3.org/1999/xhtml\">empty</div>"
      },
      "identifier": [ {
        "system": "https://mips.be/UZG",
        "value": "275723097"
      } ],
      "status": "active",
      "intent": "order",
      "priority": "routine",
      "subject": {
        "reference": "Patient/405636"
      }
    }
  }, {
    "fullUrl": "ServiceRequest/275723091",
    "resource": {
      "resourceType": "ServiceRequest",
      "id": "275723091",
      "text": {
        "status": "empty",
        "div": "<div xmlns=\"http://www.w3.org/1999/xhtml\">empty</div>"
      },
      "identifier": [ {
        "system": "https://mips.be/UZG",
        "value": "275723091"
      } ],
      "status": "active",
      "intent": "order",
      "priority": "routine",
      "subject": {
        "reference": "Patient/405636"
      }
    }
  }, {
    "fullUrl": "ServiceRequest/275723081",
    "resource": {
      "resourceType": "ServiceRequest",
      "id": "275723081",
      "text": {
        "status": "empty",
        "div": "<div xmlns=\"http://www.w3.org/1999/xhtml\">empty</div>"
      },
      "identifier": [ {
        "system": "https://mips.be/UZG",
        "value": "275723081"
      } ],
      "status": "active",
      "intent": "order",
      "priority": "routine",
      "subject": {
        "reference": "Patient/405636"
      }
    }
  }, {
    "fullUrl": "ServiceRequest/275723079",
    "resource": {
      "resourceType": "ServiceRequest",
      "id": "275723079",
      "text": {
        "status": "empty",
        "div": "<div xmlns=\"http://www.w3.org/1999/xhtml\">empty</div>"
      },
      "identifier": [ {
        "system": "https://mips.be/UZG",
        "value": "275723079"
      } ],
      "status": "active",
      "intent": "order",
      "priority": "routine",
      "subject": {
        "reference": "Patient/405636"
      }
    }
  }, {
    "fullUrl": "ServiceRequest/275723077",
    "resource": {
      "resourceType": "ServiceRequest",
      "id": "275723077",
      "text": {
        "status": "empty",
        "div": "<div xmlns=\"http://www.w3.org/1999/xhtml\">empty</div>"
      },
      "identifier": [ {
        "system": "https://mips.be/UZG",
        "value": "275723077"
      } ],
      "status": "active",
      "intent": "order",
      "priority": "routine",
      "subject": {
        "reference": "Patient/405636"
      }
    }
  }, {
    "fullUrl": "ServiceRequest/275722915",
    "resource": {
      "resourceType": "ServiceRequest",
      "id": "275722915",
      "text": {
        "status": "empty",
        "div": "<div xmlns=\"http://www.w3.org/1999/xhtml\">empty</div>"
      },
      "identifier": [ {
        "system": "https://mips.be/UZG",
        "value": "275722915"
      } ],
      "status": "active",
      "intent": "order",
      "priority": "routine",
      "subject": {
        "reference": "Patient/405636"
      }
    }
  }, {
    "fullUrl": "ServiceRequest/275722917",
    "resource": {
      "resourceType": "ServiceRequest",
      "id": "275722917",
      "text": {
        "status": "empty",
        "div": "<div xmlns=\"http://www.w3.org/1999/xhtml\">empty</div>"
      },
      "identifier": [ {
        "system": "https://mips.be/UZG",
        "value": "275722917"
      } ],
      "status": "active",
      "intent": "order",
      "priority": "routine",
      "subject": {
        "reference": "Patient/405636"
      }
    }
  }, {
    "fullUrl": "ServiceRequest/275722921",
    "resource": {
      "resourceType": "ServiceRequest",
      "id": "275722921",
      "text": {
        "status": "empty",
        "div": "<div xmlns=\"http://www.w3.org/1999/xhtml\">empty</div>"
      },
      "identifier": [ {
        "system": "https://mips.be/UZG",
        "value": "275722921"
      } ],
      "status": "active",
      "intent": "order",
      "priority": "routine",
      "subject": {
        "reference": "Patient/405636"
      }
    }
  }, {
    "fullUrl": "ServiceRequest/275722919",
    "resource": {
      "resourceType": "ServiceRequest",
      "id": "275722919",
      "text": {
        "status": "empty",
        "div": "<div xmlns=\"http://www.w3.org/1999/xhtml\">empty</div>"
      },
      "identifier": [ {
        "system": "https://mips.be/UZG",
        "value": "275722919"
      } ],
      "status": "active",
      "intent": "order",
      "priority": "routine",
      "subject": {
        "reference": "Patient/405636"
      }
    }
  }, {
    "fullUrl": "ServiceRequest/275723083",
    "resource": {
      "resourceType": "ServiceRequest",
      "id": "275723083",
      "text": {
        "status": "empty",
        "div": "<div xmlns=\"http://www.w3.org/1999/xhtml\">empty</div>"
      },
      "identifier": [ {
        "system": "https://mips.be/UZG",
        "value": "275723083"
      } ],
      "status": "active",
      "intent": "order",
      "priority": "routine",
      "subject": {
        "reference": "Patient/405636"
      }
    }
  }, {
    "fullUrl": "ServiceRequest/275723143",
    "resource": {
      "resourceType": "ServiceRequest",
      "id": "275723143",
      "text": {
        "status": "empty",
        "div": "<div xmlns=\"http://www.w3.org/1999/xhtml\">empty</div>"
      },
      "identifier": [ {
        "system": "https://mips.be/UZG",
        "value": "275723143"
      } ],
      "status": "active",
      "intent": "order",
      "priority": "routine",
      "subject": {
        "reference": "Patient/405636"
      }
    }
  }, {
    "fullUrl": "ServiceRequest/275723075",
    "resource": {
      "resourceType": "ServiceRequest",
      "id": "275723075",
      "text": {
        "status": "empty",
        "div": "<div xmlns=\"http://www.w3.org/1999/xhtml\">empty</div>"
      },
      "identifier": [ {
        "system": "https://mips.be/UZG",
        "value": "275723075"
      } ],
      "status": "active",
      "intent": "order",
      "priority": "routine",
      "subject": {
        "reference": "Patient/405636"
      }
    }
  }, {
    "fullUrl": "ServiceRequest/275723073",
    "resource": {
      "resourceType": "ServiceRequest",
      "id": "275723073",
      "text": {
        "status": "empty",
        "div": "<div xmlns=\"http://www.w3.org/1999/xhtml\">empty</div>"
      },
      "identifier": [ {
        "system": "https://mips.be/UZG",
        "value": "275723073"
      } ],
      "status": "active",
      "intent": "order",
      "priority": "routine",
      "subject": {
        "reference": "Patient/405636"
      }
    }
  }, {
    "fullUrl": "ServiceRequest/275723071",
    "resource": {
      "resourceType": "ServiceRequest",
      "id": "275723071",
      "text": {
        "status": "empty",
        "div": "<div xmlns=\"http://www.w3.org/1999/xhtml\">empty</div>"
      },
      "identifier": [ {
        "system": "https://mips.be/UZG",
        "value": "275723071"
      } ],
      "status": "active",
      "intent": "order",
      "priority": "routine",
      "subject": {
        "reference": "Patient/405636"
      }
    }
  }, {
    "fullUrl": "ServiceRequest/275723089",
    "resource": {
      "resourceType": "ServiceRequest",
      "id": "275723089",
      "text": {
        "status": "empty",
        "div": "<div xmlns=\"http://www.w3.org/1999/xhtml\">empty</div>"
      },
      "identifier": [ {
        "system": "https://mips.be/UZG",
        "value": "275723089"
      } ],
      "status": "active",
      "intent": "order",
      "priority": "routine",
      "subject": {
        "reference": "Patient/405636"
      }
    }
  }, {
    "fullUrl": "ServiceRequest/275723085",
    "resource": {
      "resourceType": "ServiceRequest",
      "id": "275723085",
      "text": {
        "status": "empty",
        "div": "<div xmlns=\"http://www.w3.org/1999/xhtml\">empty</div>"
      },
      "identifier": [ {
        "system": "https://mips.be/UZG",
        "value": "275723085"
      } ],
      "status": "active",
      "intent": "order",
      "priority": "routine",
      "subject": {
        "reference": "Patient/405636"
      }
    }
  }, {
    "fullUrl": "ServiceRequest/275723087",
    "resource": {
      "resourceType": "ServiceRequest",
      "id": "275723087",
      "text": {
        "status": "empty",
        "div": "<div xmlns=\"http://www.w3.org/1999/xhtml\">empty</div>"
      },
      "identifier": [ {
        "system": "https://mips.be/UZG",
        "value": "275723087"
      } ],
      "status": "active",
      "intent": "order",
      "priority": "routine",
      "subject": {
        "reference": "Patient/405636"
      }
    }
  }, {
    "fullUrl": "Observation/389060987",
    "resource": {
      "resourceType": "Observation",
      "id": "389060987",
      "meta": {
        "versionId": "1",
        "profile": [ "https://www.ehealth.fgov.be/standards/fhir/StructureDefinition/be-observation-laboratory" ]
      },
      "text": {
        "status": "empty",
        "div": "<div xmlns=\"http://www.w3.org/1999/xhtml\">empty</div>"
      },
      "basedOn": [ {
        "reference": "ServiceRequest/275723097"
      } ],
      "status": "cancelled",
      "code": {
        "coding": [ {
          "system": "https://mips.be/UZG",
          "code": "SINDIC"
        } ],
        "text": "Indicatie :"
      },
      "subject": {
        "reference": "Patient/405636"
      },
      "issued": "2022-03-24T17:21:25.000+01:00",
      "valueString": "StopGezet"
    }
  }, {
    "fullUrl": "Observation/389060981",
    "resource": {
      "resourceType": "Observation",
      "id": "389060981",
      "meta": {
        "versionId": "1",
        "profile": [ "https://www.ehealth.fgov.be/standards/fhir/StructureDefinition/be-observation-laboratory" ]
      },
      "text": {
        "status": "empty",
        "div": "<div xmlns=\"http://www.w3.org/1999/xhtml\">empty</div>"
      },
      "basedOn": [ {
        "reference": "ServiceRequest/275723091"
      } ],
      "status": "cancelled",
      "code": {
        "coding": [ {
          "system": "http://loinc.org",
          "code": "66746-9"
        } ],
        "text": "Staal"
      },
      "subject": {
        "reference": "Patient/405636"
      },
      "issued": "2022-03-24T17:21:12.000+01:00",
      "valueString": "StopGezet"
    }
  }, {
    "fullUrl": "Observation/389060976",
    "resource": {
      "resourceType": "Observation",
      "id": "389060976",
      "meta": {
        "versionId": "1",
        "profile": [ "https://www.ehealth.fgov.be/standards/fhir/StructureDefinition/be-observation-laboratory" ]
      },
      "text": {
        "status": "empty",
        "div": "<div xmlns=\"http://www.w3.org/1999/xhtml\">empty</div>"
      },
      "basedOn": [ {
        "reference": "ServiceRequest/275723081"
      } ],
      "status": "final",
      "code": {
        "coding": [ {
          "system": "http://loinc.org",
          "code": "58413-6",
          "display": "Erythrocytes nucleated / 100 leukocytes (blood) - automated count"
        } ]
      },
      "subject": {
        "reference": "Patient/405636"
      },
      "issued": "2022-03-24T16:47:02.000+01:00",
      "valueQuantity": {
        "value": 1.0,
        "comparator": "<",
        "system": "http://unitsofmeasure.org",
        "code": "/100{WBC}"
      },
      "specimen": {
        "reference": "Specimen/220320100306"
      },
      "referenceRange": [ {
        "high": {
          "value": 1.0,
          "system": "http://unitsofmeasure.org",
          "code": "/100{WBC}"
        }
      } ]
    }
  }, {
    "fullUrl": "Observation/389060975",
    "resource": {
      "resourceType": "Observation",
      "id": "389060975",
      "meta": {
        "versionId": "1",
        "profile": [ "https://www.ehealth.fgov.be/standards/fhir/StructureDefinition/be-observation-laboratory" ]
      },
      "text": {
        "status": "empty",
        "div": "<div xmlns=\"http://www.w3.org/1999/xhtml\">empty</div>"
      },
      "basedOn": [ {
        "reference": "ServiceRequest/275723079"
      } ],
      "status": "final",
      "code": {
        "coding": [ {
          "system": "http://loinc.org",
          "code": "63561-5",
          "display": "Activated Partial Thromboplastine Time (platelet poor plasma) - ratio"
        } ]
      },
      "subject": {
        "reference": "Patient/405636"
      },
      "issued": "2022-03-24T16:47:07.000+01:00",
      "valueQuantity": {
        "value": 2,
        "system": "http://unitsofmeasure.org"
      },
      "specimen": {
        "reference": "Specimen/220320100305"
      },
      "referenceRange": [ {
        "low": {
          "value": 2,
          "system": "http://unitsofmeasure.org"
        },
        "high": {
          "value": 3,
          "system": "http://unitsofmeasure.org"
        }
      } ]
    }
  }, {
    "fullUrl": "Observation/389060974",
    "resource": {
      "resourceType": "Observation",
      "id": "389060974",
      "meta": {
        "versionId": "1",
        "profile": [ "https://www.ehealth.fgov.be/standards/fhir/StructureDefinition/be-observation-laboratory" ]
      },
      "text": {
        "status": "empty",
        "div": "<div xmlns=\"http://www.w3.org/1999/xhtml\">empty</div>"
      },
      "basedOn": [ {
        "reference": "ServiceRequest/275723077"
      } ],
      "status": "final",
      "code": {
        "coding": [ {
          "system": "http://loinc.org",
          "code": "2744-1",
          "display": "pH (arterial blood)"
        } ]
      },
      "subject": {
        "reference": "Patient/405636"
      },
      "issued": "2022-03-24T16:47:14.000+01:00",
      "valueQuantity": {
        "value": 7.5,
        "system": "http://unitsofmeasure.org"
      },
      "interpretation": [ {
        "coding": [ {
          "system": "http://terminology.hl7.org/CodeSystem/v3-ObservationInterpretation",
          "code": "H"
        } ]
      } ],
      "specimen": {
        "reference": "Specimen/220320100304"
      },
      "referenceRange": [ {
        "low": {
          "value": 7.35,
          "system": "http://unitsofmeasure.org"
        },
        "high": {
          "value": 7.45,
          "system": "http://unitsofmeasure.org"
        }
      } ]
    }
  }, {
    "fullUrl": "Observation/389060859",
    "resource": {
      "resourceType": "Observation",
      "id": "389060859",
      "meta": {
        "versionId": "1",
        "profile": [ "https://www.ehealth.fgov.be/standards/fhir/StructureDefinition/be-observation-laboratory" ]
      },
      "text": {
        "status": "empty",
        "div": "<div xmlns=\"http://www.w3.org/1999/xhtml\">empty</div>"
      },
      "basedOn": [ {
        "reference": "ServiceRequest/275722915"
      } ],
      "status": "final",
      "code": {
        "coding": [ {
          "system": "http://loinc.org",
          "code": "2955-3",
          "display": "Sodium (urine) - [mmoles/L]"
        } ]
      },
      "subject": {
        "reference": "Patient/405636"
      },
      "issued": "2022-03-24T16:47:39.000+01:00",
      "valueQuantity": {
        "value": 300,
        "system": "http://unitsofmeasure.org",
        "code": "mmol/L"
      },
      "specimen": {
        "reference": "Specimen/220320100301"
      }
    }
  }, {
    "fullUrl": "Observation/389060860",
    "resource": {
      "resourceType": "Observation",
      "id": "389060860",
      "meta": {
        "versionId": "1",
        "profile": [ "https://www.ehealth.fgov.be/standards/fhir/StructureDefinition/be-observation-laboratory" ]
      },
      "text": {
        "status": "empty",
        "div": "<div xmlns=\"http://www.w3.org/1999/xhtml\">empty</div>"
      },
      "basedOn": [ {
        "reference": "ServiceRequest/275722917"
      } ],
      "status": "preliminary",
      "code": {
        "coding": [ {
          "system": "http://loinc.org",
          "code": "2828-2",
          "display": "Potassium (urine) - in moles/volume [mmoles/L]"
        } ]
      },
      "subject": {
        "reference": "Patient/405636"
      },
      "issued": "2022-04-04T14:47:53.000+02:00",
      "valueQuantity": {
        "value": 400.0,
        "system": "http://unitsofmeasure.org",
        "code": "mmol/L"
      },
      "specimen": {
        "reference": "Specimen/220320100301"
      }
    }
  }, {
    "fullUrl": "Observation/389060862",
    "resource": {
      "resourceType": "Observation",
      "id": "389060862",
      "meta": {
        "versionId": "1",
        "profile": [ "https://www.ehealth.fgov.be/standards/fhir/StructureDefinition/be-observation-laboratory" ]
      },
      "text": {
        "status": "empty",
        "div": "<div xmlns=\"http://www.w3.org/1999/xhtml\">empty</div>"
      },
      "basedOn": [ {
        "reference": "ServiceRequest/275722921"
      } ],
      "status": "registered",
      "code": {
        "coding": [ {
          "system": "https://mips.be/UZG",
          "code": "OSMOLU"
        } ],
        "text": "Osmolaliteit"
      },
      "subject": {
        "reference": "Patient/405636"
      },
      "valueString": "volgt",
      "specimen": {
        "reference": "Specimen/220320100301"
      },
      "referenceRange": [ {
        "low": {
          "value": 50,
          "system": "http://unitsofmeasure.org",
          "code": "mosm/kg"
        },
        "high": {
          "value": 1200,
          "system": "http://unitsofmeasure.org",
          "code": "mosm/kg"
        }
      } ]
    }
  }, {
    "fullUrl": "Observation/389060861",
    "resource": {
      "resourceType": "Observation",
      "id": "389060861",
      "meta": {
        "versionId": "1",
        "profile": [ "https://www.ehealth.fgov.be/standards/fhir/StructureDefinition/be-observation-laboratory" ]
      },
      "text": {
        "status": "empty",
        "div": "<div xmlns=\"http://www.w3.org/1999/xhtml\">empty</div>"
      },
      "basedOn": [ {
        "reference": "ServiceRequest/275722919"
      } ],
      "status": "final",
      "code": {
        "coding": [ {
          "system": "http://loinc.org",
          "code": "46723-3",
          "display": "Alpha 1 microglobulin (urine)"
        } ]
      },
      "subject": {
        "reference": "Patient/405636"
      },
      "issued": "2022-03-24T16:57:52.000+01:00",
      "valueQuantity": {
        "value": 3.50,
        "comparator": "<",
        "system": "http://unitsofmeasure.org",
        "code": "mg/L"
      },
      "specimen": {
        "reference": "Specimen/220320100301"
      },
      "referenceRange": [ {
        "low": {
          "value": 0,
          "system": "http://unitsofmeasure.org",
          "code": "mg/L"
        },
        "high": {
          "value": 8,
          "system": "http://unitsofmeasure.org",
          "code": "mg/L"
        }
      } ]
    }
  }, {
    "fullUrl": "Observation/389060977",
    "resource": {
      "resourceType": "Observation",
      "id": "389060977",
      "meta": {
        "versionId": "1",
        "profile": [ "https://www.ehealth.fgov.be/standards/fhir/StructureDefinition/be-observation-laboratory" ]
      },
      "text": {
        "status": "empty",
        "div": "<div xmlns=\"http://www.w3.org/1999/xhtml\">empty</div>"
      },
      "basedOn": [ {
        "reference": "ServiceRequest/275723083"
      } ],
      "status": "final",
      "code": {
        "coding": [ {
          "system": "http://loinc.org",
          "code": "10535-3",
          "display": "Digoxin (serum/plasma) [µg/L]"
        } ]
      },
      "subject": {
        "reference": "Patient/405636"
      },
      "issued": "2022-03-24T16:58:15.000+01:00",
      "valueQuantity": {
        "value": 3.00,
        "comparator": ">",
        "system": "http://unitsofmeasure.org",
        "code": "ug/L"
      },
      "interpretation": [ {
        "coding": [ {
          "system": "http://terminology.hl7.org/CodeSystem/v3-ObservationInterpretation",
          "code": "H"
        } ]
      } ],
      "note": [ {
        "text": "Buis ontvangen op: 24/03/2022/16:46"
      } ],
      "specimen": {
        "reference": "Specimen/220320100307"
      },
      "referenceRange": [ {
        "text": "Therapeutisch: < 1.0 µg/L\nToxisch: > 2.0 µg/L\n"
      } ]
    }
  }, {
    "fullUrl": "Observation/389061020",
    "resource": {
      "resourceType": "Observation",
      "id": "389061020",
      "meta": {
        "versionId": "1",
        "profile": [ "https://www.ehealth.fgov.be/standards/fhir/StructureDefinition/be-observation-laboratory" ]
      },
      "text": {
        "status": "empty",
        "div": "<div xmlns=\"http://www.w3.org/1999/xhtml\">empty</div>"
      },
      "basedOn": [ {
        "reference": "ServiceRequest/275723143"
      } ],
      "status": "corrected",
      "code": {
        "coding": [ {
          "system": "http://loinc.org",
          "code": "1992-7",
          "display": "Calcitonin (serum/plasma)"
        } ]
      },
      "subject": {
        "reference": "Patient/405636"
      },
      "issued": "2022-04-04T14:49:08.000+02:00",
      "valueQuantity": {
        "value": 15,
        "system": "http://unitsofmeasure.org",
        "code": "pg/mL"
      },
      "interpretation": [ {
        "coding": [ {
          "system": "http://terminology.hl7.org/CodeSystem/v3-ObservationInterpretation",
          "code": "H"
        } ]
      } ],
      "note": [ {
        "text": "Gewijzigde referentiewaarde sinds 15/03/2022. Resultaten liggen gemiddeld 10% hoger"
      } ],
      "specimen": {
        "reference": "Specimen/220320100303"
      },
      "referenceRange": [ {
        "high": {
          "value": 9.82,
          "system": "http://unitsofmeasure.org",
          "code": "pg/mL"
        }
      } ]
    }
  }, {
    "fullUrl": "Observation/389060973",
    "resource": {
      "resourceType": "Observation",
      "id": "389060973",
      "meta": {
        "versionId": "1",
        "profile": [ "https://www.ehealth.fgov.be/standards/fhir/StructureDefinition/be-observation-laboratory" ]
      },
      "text": {
        "status": "empty",
        "div": "<div xmlns=\"http://www.w3.org/1999/xhtml\">empty</div>"
      },
      "basedOn": [ {
        "reference": "ServiceRequest/275723075"
      } ],
      "status": "registered",
      "code": {
        "coding": [ {
          "system": "http://loinc.org",
          "code": "10501-5",
          "display": "Luteinising hormone (serum/plasma) - in units/volume [U/L]"
        } ]
      },
      "subject": {
        "reference": "Patient/405636"
      },
      "valueString": "volgt",
      "specimen": {
        "reference": "Specimen/220320100303"
      },
      "referenceRange": [ {
        "text": "Folliculair    :2  - 13\nPeriovulatoir  :14 - 96\nLuteaal        :1  - 11\nPostmenopausaal:8 - 59"
      } ]
    }
  }, {
    "fullUrl": "Observation/389060972",
    "resource": {
      "resourceType": "Observation",
      "id": "389060972",
      "meta": {
        "versionId": "1",
        "profile": [ "https://www.ehealth.fgov.be/standards/fhir/StructureDefinition/be-observation-laboratory" ]
      },
      "text": {
        "status": "empty",
        "div": "<div xmlns=\"http://www.w3.org/1999/xhtml\">empty</div>"
      },
      "basedOn": [ {
        "reference": "ServiceRequest/275723073"
      } ],
      "status": "final",
      "code": {
        "coding": [ {
          "system": "http://loinc.org",
          "code": "2839-9",
          "display": "Progesterone (serum/plasma) - in mass/volume [µg/L]"
        } ]
      },
      "subject": {
        "reference": "Patient/405636"
      },
      "issued": "2022-03-24T16:58:29.000+01:00",
      "valueQuantity": {
        "value": 0.20,
        "comparator": "<",
        "system": "http://unitsofmeasure.org",
        "code": "ug/L"
      },
      "specimen": {
        "reference": "Specimen/220320100303"
      },
      "referenceRange": [ {
        "text": "Folliculair  : < 0.19\nOvulatie:   0.06 - 4.14\nLuteaal      : 4.1 - 14.5\nMenopausaal  : < 0.13\nZwangerschap : >11"
      } ]
    }
  }, {
    "fullUrl": "Observation/389060971",
    "resource": {
      "resourceType": "Observation",
      "id": "389060971",
      "meta": {
        "versionId": "1",
        "profile": [ "https://www.ehealth.fgov.be/standards/fhir/StructureDefinition/be-observation-laboratory" ]
      },
      "text": {
        "status": "empty",
        "div": "<div xmlns=\"http://www.w3.org/1999/xhtml\">empty</div>"
      },
      "basedOn": [ {
        "reference": "ServiceRequest/275723071"
      } ],
      "status": "corrected",
      "code": {
        "coding": [ {
          "system": "http://loinc.org",
          "code": "21198-7",
          "display": "Beta human choriogonadotropin (serum/plasma)"
        } ]
      },
      "subject": {
        "reference": "Patient/405636"
      },
      "issued": "2022-03-24T16:58:57.000+01:00",
      "valueQuantity": {
        "value": 12512,
        "system": "http://unitsofmeasure.org",
        "code": "U/L"
      },
      "specimen": {
        "reference": "Specimen/220320100303"
      },
      "referenceRange": [ {
        "text": "weken     HCG\n--------------------\n1-9         5,8    -  151410\n10-12    46509   -  210612\n13-18    13950  -  58176\n\n"
      } ]
    }
  }, {
    "fullUrl": "Observation/389060980",
    "resource": {
      "resourceType": "Observation",
      "id": "389060980",
      "meta": {
        "versionId": "1",
        "profile": [ "https://www.ehealth.fgov.be/standards/fhir/StructureDefinition/be-observation-laboratory" ]
      },
      "text": {
        "status": "empty",
        "div": "<div xmlns=\"http://www.w3.org/1999/xhtml\">empty</div>"
      },
      "basedOn": [ {
        "reference": "ServiceRequest/275723089"
      } ],
      "status": "final",
      "code": {
        "coding": [ {
          "system": "http://loinc.org",
          "code": "52984-2",
          "display": "Cytomegalovirus IgG avidity (serum) - immunoassay"
        } ]
      },
      "subject": {
        "reference": "Patient/405636"
      },
      "issued": "2022-03-24T16:59:09.000+01:00",
      "valueQuantity": {
        "value": 60,
        "system": "http://unitsofmeasure.org",
        "code": "%"
      },
      "specimen": {
        "reference": "Specimen/220320100308"
      },
      "referenceRange": [ {
        "text": "<50%: lage aviditeit\n50-59,9%: borderline\n>=60%: hoge aviditeit"
      } ]
    }
  }, {
    "fullUrl": "Observation/389060978",
    "resource": {
      "resourceType": "Observation",
      "id": "389060978",
      "meta": {
        "versionId": "1",
        "profile": [ "https://www.ehealth.fgov.be/standards/fhir/StructureDefinition/be-observation-laboratory" ]
      },
      "text": {
        "status": "empty",
        "div": "<div xmlns=\"http://www.w3.org/1999/xhtml\">empty</div>"
      },
      "basedOn": [ {
        "reference": "ServiceRequest/275723085"
      } ],
      "status": "final",
      "code": {
        "coding": [ {
          "system": "http://loinc.org",
          "code": "22313-1",
          "display": "Hepatitis A virus IgG (serum) - in units/volume"
        } ]
      },
      "subject": {
        "reference": "Patient/405636"
      },
      "issued": "2022-03-24T16:59:25.000+01:00",
      "valueQuantity": {
        "value": 3.40,
        "system": "http://unitsofmeasure.org",
        "code": "m[IU]/mL"
      },
      "interpretation": [ {
        "coding": [ {
          "system": "http://terminology.hl7.org/CodeSystem/v3-ObservationInterpretation",
          "code": "HH"
        } ]
      } ],
      "note": [ {
        "text": "Positief"
      } ],
      "specimen": {
        "reference": "Specimen/220320100308"
      },
      "referenceRange": [ {
        "text": "<1: Negatief\n>=1: Positief"
      } ]
    }
  }, {
    "fullUrl": "Observation/389060979",
    "resource": {
      "resourceType": "Observation",
      "id": "389060979",
      "meta": {
        "versionId": "1",
        "profile": [ "https://www.ehealth.fgov.be/standards/fhir/StructureDefinition/be-observation-laboratory" ]
      },
      "text": {
        "status": "empty",
        "div": "<div xmlns=\"http://www.w3.org/1999/xhtml\">empty</div>"
      },
      "basedOn": [ {
        "reference": "ServiceRequest/275723087"
      } ],
      "status": "final",
      "code": {
        "coding": [ {
          "system": "http://loinc.org",
          "code": "5195-3",
          "display": "Hepatitis B virus surface Ag (serum) - presence"
        } ]
      },
      "subject": {
        "reference": "Patient/405636"
      },
      "issued": "2022-03-24T16:59:41.000+01:00",
      "valueString": "Negatief",
      "specimen": {
        "reference": "Specimen/220320100308"
      },
      "referenceRange": [ {
        "text": "Negatief"
      } ]
    }
  }, {
    "fullUrl": "Observation/389060983",
    "resource": {
      "resourceType": "Observation",
      "id": "389060983",
      "meta": {
        "versionId": "1",
        "profile": [ "https://www.ehealth.fgov.be/standards/fhir/StructureDefinition/be-observation-laboratory" ]
      },
      "text": {
        "status": "empty",
        "div": "<div xmlns=\"http://www.w3.org/1999/xhtml\">empty</div>"
      },
      "basedOn": [ {
        "reference": "ServiceRequest/275723087"
      } ],
      "status": "final",
      "code": {
        "coding": [ {
          "system": "https://mips.be/UZG",
          "code": "HBSAGEC"
        } ],
        "text": "Routine Hepatitis B surface Ag (HBsAg)"
      },
      "subject": {
        "reference": "Patient/405636"
      },
      "issued": "2022-03-24T16:59:52.000+01:00",
      "valueString": "negatief",
      "specimen": {
        "reference": "Specimen/220320100308"
      }
    }
  }, {
    "fullUrl": "Observation/389060982",
    "resource": {
      "resourceType": "Observation",
      "id": "389060982",
      "meta": {
        "versionId": "1",
        "profile": [ "https://www.ehealth.fgov.be/standards/fhir/StructureDefinition/be-observation-laboratory" ]
      },
      "text": {
        "status": "empty",
        "div": "<div xmlns=\"http://www.w3.org/1999/xhtml\">empty</div>"
      },
      "basedOn": [ {
        "reference": "ServiceRequest/275723091"
      } ],
      "status": "final",
      "code": {
        "coding": [ {
          "system": "https://mips.be/UZG",
          "code": "HSVDNA"
        } ],
        "text": "Herpes Simplex virus DNA (HSV)"
      },
      "subject": {
        "reference": "Patient/405636"
      },
      "issued": "2022-03-24T16:59:57.000+01:00",
      "valueString": "negatief",
      "note": [ {
        "text": "Analyse enkel gevalideerd op lumbaal vocht."
      } ],
      "specimen": {
        "reference": "Specimen/220320100310"
      }
    }
  }, {
    "fullUrl": "Specimen/220320100306",
    "resource": {
      "resourceType": "Specimen",
      "id": "220320100306",
      "meta": {
        "versionId": "1",
        "profile": [ "https://www.ehealth.fgov.be/standards/fhir/StructureDefinition/be-specimen-laboratory" ]
      },
      "text": {
        "status": "empty",
        "div": "<div xmlns=\"http://www.w3.org/1999/xhtml\">empty</div>"
      },
      "identifier": [ {
        "system": "https://mips.be/UZG",
        "value": "220320100306"
      } ],
      "status": "available",
      "type": {
        "coding": [ {
          "system": "http://snomed.info/sct",
          "code": "445295009"
        } ],
        "text": "EDTA (paars)"
      },
      "subject": {
        "reference": "Patient/405636"
      },
      "receivedTime": "2022-03-24T16:46:21+01:00",
      "request": [ {
        "reference": "ServiceRequest/275723081"
      } ],
      "collection": {
        "collectedDateTime": "2022-03-24T16:46:00+01:00"
      }
    }
  }, {
    "fullUrl": "Specimen/220320100305",
    "resource": {
      "resourceType": "Specimen",
      "id": "220320100305",
      "meta": {
        "versionId": "1",
        "profile": [ "https://www.ehealth.fgov.be/standards/fhir/StructureDefinition/be-specimen-laboratory" ]
      },
      "text": {
        "status": "empty",
        "div": "<div xmlns=\"http://www.w3.org/1999/xhtml\">empty</div>"
      },
      "identifier": [ {
        "system": "https://mips.be/UZG",
        "value": "220320100305"
      } ],
      "status": "available",
      "type": {
        "coding": [ {
          "system": "http://snomed.info/sct",
          "code": "708048008"
        } ],
        "text": "Citraat (blauw)"
      },
      "subject": {
        "reference": "Patient/405636"
      },
      "receivedTime": "2022-03-24T16:46:21+01:00",
      "request": [ {
        "reference": "ServiceRequest/275723079"
      } ],
      "collection": {
        "collectedDateTime": "2022-03-24T16:46:00+01:00"
      }
    }
  }, {
    "fullUrl": "Specimen/220320100304",
    "resource": {
      "resourceType": "Specimen",
      "id": "220320100304",
      "meta": {
        "versionId": "1",
        "profile": [ "https://www.ehealth.fgov.be/standards/fhir/StructureDefinition/be-specimen-laboratory" ]
      },
      "text": {
        "status": "empty",
        "div": "<div xmlns=\"http://www.w3.org/1999/xhtml\">empty</div>"
      },
      "identifier": [ {
        "system": "https://mips.be/UZG",
        "value": "220320100304"
      } ],
      "status": "available",
      "type": {
        "coding": [ {
          "system": "http://snomed.info/sct",
          "code": "122554006"
        } ],
        "text": "Capillair"
      },
      "subject": {
        "reference": "Patient/405636"
      },
      "receivedTime": "2022-03-24T16:46:21+01:00",
      "request": [ {
        "reference": "ServiceRequest/275723077"
      } ],
      "collection": {
        "collectedDateTime": "2022-03-24T16:46:00+01:00"
      }
    }
  }, {
    "fullUrl": "Specimen/220320100301",
    "resource": {
      "resourceType": "Specimen",
      "id": "220320100301",
      "meta": {
        "versionId": "1",
        "profile": [ "https://www.ehealth.fgov.be/standards/fhir/StructureDefinition/be-specimen-laboratory" ]
      },
      "text": {
        "status": "empty",
        "div": "<div xmlns=\"http://www.w3.org/1999/xhtml\">empty</div>"
      },
      "identifier": [ {
        "system": "https://mips.be/UZG",
        "value": "220320100301"
      } ],
      "status": "available",
      "type": {
        "coding": [ {
          "system": "http://snomed.info/sct",
          "code": "122575003"
        } ],
        "text": "Urinestaal"
      },
      "subject": {
        "reference": "Patient/405636"
      },
      "receivedTime": "2022-03-24T16:46:20+01:00",
      "request": [ {
        "reference": "ServiceRequest/275722915"
      } ],
      "collection": {
        "collectedDateTime": "2022-03-24T16:46:00+01:00"
      }
    }
  }, {
    "fullUrl": "Specimen/220320100307",
    "resource": {
      "resourceType": "Specimen",
      "id": "220320100307",
      "meta": {
        "versionId": "1",
        "profile": [ "https://www.ehealth.fgov.be/standards/fhir/StructureDefinition/be-specimen-laboratory" ]
      },
      "text": {
        "status": "empty",
        "div": "<div xmlns=\"http://www.w3.org/1999/xhtml\">empty</div>"
      },
      "identifier": [ {
        "system": "https://mips.be/UZG",
        "value": "220320100307"
      } ],
      "status": "available",
      "type": {
        "coding": [ {
          "system": "http://snomed.info/sct",
          "code": "119364003"
        } ],
        "text": "Serum (oker met gel) of Heparine (met gel)"
      },
      "subject": {
        "reference": "Patient/405636"
      },
      "receivedTime": "2022-03-24T16:46:21+01:00",
      "request": [ {
        "reference": "ServiceRequest/275723083"
      } ],
      "collection": {
        "collectedDateTime": "2022-03-24T16:46:00+01:00"
      }
    }
  }, {
    "fullUrl": "Specimen/220320100303",
    "resource": {
      "resourceType": "Specimen",
      "id": "220320100303",
      "meta": {
        "versionId": "1",
        "profile": [ "https://www.ehealth.fgov.be/standards/fhir/StructureDefinition/be-specimen-laboratory" ]
      },
      "text": {
        "status": "empty",
        "div": "<div xmlns=\"http://www.w3.org/1999/xhtml\">empty</div>"
      },
      "identifier": [ {
        "system": "https://mips.be/UZG",
        "value": "220320100303"
      } ],
      "status": "available",
      "type": {
        "coding": [ {
          "system": "http://snomed.info/sct",
          "code": "119364003"
        } ],
        "text": "Serum HRM (oker met gel) of Heparine (met gel)"
      },
      "subject": {
        "reference": "Patient/405636"
      },
      "receivedTime": "2022-03-24T16:46:20+01:00",
      "request": [ {
        "reference": "ServiceRequest/275723143"
      } ],
      "collection": {
        "collectedDateTime": "2022-03-24T16:46:00+01:00"
      }
    }
  }, {
    "fullUrl": "Specimen/220320100308",
    "resource": {
      "resourceType": "Specimen",
      "id": "220320100308",
      "meta": {
        "versionId": "1",
        "profile": [ "https://www.ehealth.fgov.be/standards/fhir/StructureDefinition/be-specimen-laboratory" ]
      },
      "text": {
        "status": "empty",
        "div": "<div xmlns=\"http://www.w3.org/1999/xhtml\">empty</div>"
      },
      "identifier": [ {
        "system": "https://mips.be/UZG",
        "value": "220320100308"
      } ],
      "status": "available",
      "type": {
        "coding": [ {
          "system": "http://snomed.info/sct",
          "code": "119364003"
        } ],
        "text": "Serum (oker met gel) - SERO LAB"
      },
      "subject": {
        "reference": "Patient/405636"
      },
      "receivedTime": "2022-03-24T16:46:21+01:00",
      "request": [ {
        "reference": "ServiceRequest/275723089"
      } ],
      "collection": {
        "collectedDateTime": "2022-03-24T16:46:00+01:00"
      }
    }
  }, {
    "fullUrl": "Specimen/220320100310",
    "resource": {
      "resourceType": "Specimen",
      "id": "220320100310",
      "meta": {
        "versionId": "1",
        "profile": [ "https://www.ehealth.fgov.be/standards/fhir/StructureDefinition/be-specimen-laboratory" ]
      },
      "text": {
        "status": "empty",
        "div": "<div xmlns=\"http://www.w3.org/1999/xhtml\">empty</div>"
      },
      "identifier": [ {
        "system": "https://mips.be/UZG",
        "value": "220320100310"
      } ],
      "status": "available",
      "type": {
        "coding": [ {
          "system": "http://snomed.info/sct",
          "code": "258442002"
        } ],
        "text": "Andere vochten"
      },
      "subject": {
        "reference": "Patient/405636"
      },
      "receivedTime": "2022-03-24T16:46:21+01:00",
      "request": [ {
        "reference": "ServiceRequest/275723091"
      } ],
      "collection": {
        "collectedDateTime": "2022-03-24T16:46:00+01:00"
      }
    }
  } ]
}