{
  "resourceType": "Bundle",
  "identifier": {
    "system": "https://www.ehealth.fgov.be/hl7/bundle",
    "value": "5d79e2ae-6a8c-4b35-9188-f89dd76f0bfd"
  },
  "type": "document",
  "timestamp": "2022-04-12T13:23:17.647+02:00",
  "entry": [ {
    "fullUrl": "Composition/35318188",
    "resource": {
      "resourceType": "Composition",
      "id": "35318188",
      "meta": {
        "profile": [ "https://www.ehealth.fgov.be/standards/fhir/StructureDefinition/be-laboratory-report-composition" ]
      },
      "text": {
        "status": "empty",
        "div": "<div xmlns=\"http://www.w3.org/1999/xhtml\">empty</div>"
      },
      "identifier": {
        "system": "https://www.ehealth.fgov.be/lab-report/diagnostic-report-id",
        "value": "5d79e2ae-6a8c-4b35-9188-f89dd76f0bfd"
      },
      "status": "final",
      "type": {
        "coding": [ {
          "system": "http://loinc.org",
          "code": "11502-2",
          "display": "Laboratory report"
        } ]
      },
      "subject": {
        "reference": "Patient/1980176"
      },
      "date": "2022-04-12T13:23:17+02:00",
      "author": [ {
        "reference": "Organization/4335"
      } ],
      "title": "Laboratory Report",
      "section": [ {
        "entry": [ {
          "reference": "DiagnosticReport/35318188"
        } ]
      } ]
    }
  }, {
    "fullUrl": "DiagnosticReport/35318188",
    "resource": {
      "resourceType": "DiagnosticReport",
      "id": "35318188",
      "meta": {
        "versionId": "8",
        "profile": [ "https://www.ehealth.fgov.be/standards/fhir/StructureDefinition/be-laboratory-report" ]
      },
      "text": {
        "status": "empty",
        "div": "<div xmlns=\"http://www.w3.org/1999/xhtml\">empty</div>"
      },
      "extension": [ {
        "url": "https://www.ehealth.fgov.be/standards/fhir/StructureDefinition/be-ext-note",
        "valueAnnotation": {
          "text": "Labgids: labo.uzgent.be"
        }
      }, {
        "url": "https://www.ehealth.fgov.be/standards/fhir/StructureDefinition/be-ext-note",
        "valueAnnotation": {
          "text": "Uitslagen: 09-332.34.34"
        }
      }, {
        "url": "https://www.ehealth.fgov.be/standards/fhir/StructureDefinition/be-ext-note",
        "valueAnnotation": {
          "text": "Elektronisch gehandtekend door: Prof. dr. apr. Bonroy Carolien, Dr. apr. biol. Oyaert Matthijs"
        }
      } ],
      "identifier": [ {
        "system": "https://www.ehealth.fgov.be/lab-report/diagnostic-report-id",
        "value": "5d79e2ae-6a8c-4b35-9188-f89dd76f0bfd"
      } ],
      "basedOn": [ {
        "reference": "ServiceRequest/211207-1165"
      } ],
      "status": "final",
      "category": [ {
        "coding": [ {
          "system": "http://terminology.hl7.org/CodeSystem/v2-0074",
          "code": "LAB",
          "display": "Laboratory"
        } ]
      } ],
      "code": {
        "coding": [ {
          "system": "http://loinc.org",
          "code": "11502-2"
        } ],
        "text": "Labo rapport"
      },
      "subject": {
        "reference": "Patient/1980176"
      },
      "effectiveDateTime": "2022-04-12T13:23:17+02:00",
      "issued": "2022-03-11T11:46:35.000+01:00",
      "performer": [ {
        "reference": "Organization/4335"
      } ],
      "resultsInterpreter": [ {
        "reference": "Practitioner/65175"
      } ],
      "specimen": [ {
        "reference": "Specimen/211207116504"
      }, {
        "reference": "Specimen/211207116501"
      }, {
        "reference": "Specimen/211207116503"
      } ],
      "result": [ {
        "reference": "Observation/b703e9c2-368b-4569-b606-004c5b79d9dc"
      }, {
        "reference": "Observation/dea6e07e-983b-4283-85dc-5d9c4d6864c8"
      } ]
    }
  }, {
    "fullUrl": "Patient/1980176",
    "resource": {
      "resourceType": "Patient",
      "id": "1980176",
      "meta": {
        "versionId": "1",
        "profile": [ "https://www.ehealth.fgov.be/standards/fhir/StructureDefinition/be-patient" ]
      },
      "text": {
        "status": "empty",
        "div": "<div xmlns=\"http://www.w3.org/1999/xhtml\">empty</div>"
      },
      "identifier": [ {
        "system": "http://mips.be/UZGent",
        "value": "00000000ECA2BN0"
      } ],
      "name": [ {
        "family": "Ecat",
        "given": [ "21.226" ]
      } ],
      "gender": "unknown"
    }
  }, {
    "fullUrl": "ServiceRequest/211207-1165",
    "resource": {
      "resourceType": "ServiceRequest",
      "id": "211207-1165",
      "text": {
        "status": "empty",
        "div": "<div xmlns=\"http://www.w3.org/1999/xhtml\">empty</div>"
      },
      "identifier": [ {
        "system": "https://www.uzgent.be",
        "value": "211207-1165"
      } ],
      "status": "completed",
      "intent": "order",
      "priority": "routine",
      "subject": {
        "reference": "Patient/1980176"
      },
      "authoredOn": "2021-11-25T09:59:00+01:00",
      "requester": {
        "reference": "Practitioner/144980"
      }
    }
  }, {
    "fullUrl": "Practitioner/144980",
    "resource": {
      "resourceType": "Practitioner",
      "id": "144980",
      "meta": {
        "versionId": "1",
        "profile": [ "https://www.ehealth.fgov.be/standards/fhir/StructureDefinition/be-practitioner" ]
      },
      "text": {
        "status": "empty",
        "div": "<div xmlns=\"http://www.w3.org/1999/xhtml\">empty</div>"
      },
      "name": [ {
        "family": "Diverse",
        "given": [ "prestaties" ]
      } ],
      "telecom": [ {
        "system": "fax"
      } ],
      "gender": "unknown"
    }
  }, {
    "fullUrl": "Organization/4335",
    "resource": {
      "resourceType": "Organization",
      "id": "4335",
      "text": {
        "status": "empty",
        "div": "<div xmlns=\"http://www.w3.org/1999/xhtml\">empty</div>"
      },
      "name": "Lab UZGent",
      "telecom": [ {
        "system": "phone",
        "value": "09/2406310"
      }, {
        "system": "fax",
        "value": "092404985"
      } ],
      "address": [ {
        "line": [ "C. Heymanslaan 10" ],
        "city": "GENT",
        "postalCode": "9000",
        "country": "B"
      } ]
    }
  }, {
    "fullUrl": "Practitioner/65175",
    "resource": {
      "resourceType": "Practitioner",
      "id": "65175",
      "meta": {
        "versionId": "1",
        "profile": [ "https://www.ehealth.fgov.be/standards/fhir/StructureDefinition/be-practitioner" ]
      },
      "text": {
        "status": "empty",
        "div": "<div xmlns=\"http://www.w3.org/1999/xhtml\">empty</div>"
      },
      "name": [ {
        "family": "Fiers",
        "given": [ "Tom" ],
        "prefix": [ "Dr." ]
      } ],
      "telecom": [ {
        "system": "fax"
      }, {
        "system": "email",
        "value": "tom.fiers@uzgent.be"
      } ],
      "address": [ {
        "line": [ "Klinische biologie UZ Gent" ],
        "city": "GENT",
        "postalCode": "9000",
        "country": "B"
      } ],
      "gender": "unknown"
    }
  }, {
    "fullUrl": "Observation/90575b7b-c792-4aa8-9f41-6812a4adf2e3",
    "resource": {
      "resourceType": "Observation",
      "id": "90575b7b-c792-4aa8-9f41-6812a4adf2e3",
      "meta": {
        "versionId": "1",
        "profile": [ "https://www.ehealth.fgov.be/standards/fhir/StructureDefinition/be-observation-laboratory" ]
      },
      "text": {
        "status": "empty",
        "div": "<div xmlns=\"http://www.w3.org/1999/xhtml\">empty</div>"
      },
      "status": "unknown",
      "code": {
        "text": "Plaatjesfunctieanalyse PFA"
      },
      "subject": {
        "reference": "Patient/1980176"
      },
      "hasMember": [ {
        "reference": "Observation/388108304"
      }, {
        "reference": "Observation/388108306"
      }, {
        "reference": "Observation/388108307"
      } ]
    }
  }, {
    "fullUrl": "Observation/7c6d2299-f99d-4ea2-a44a-e7c0b00ba57a",
    "resource": {
      "resourceType": "Observation",
      "id": "7c6d2299-f99d-4ea2-a44a-e7c0b00ba57a",
      "meta": {
        "versionId": "1",
        "profile": [ "https://www.ehealth.fgov.be/standards/fhir/StructureDefinition/be-observation-laboratory" ]
      },
      "text": {
        "status": "empty",
        "div": "<div xmlns=\"http://www.w3.org/1999/xhtml\">empty</div>"
      },
      "status": "unknown",
      "code": {
        "text": "Screening plaatjesfunctie"
      },
      "subject": {
        "reference": "Patient/1980176"
      },
      "hasMember": [ {
        "reference": "Observation/90575b7b-c792-4aa8-9f41-6812a4adf2e3"
      } ]
    }
  }, {
    "fullUrl": "Observation/5e5a4f29-99b8-4d6c-9c1e-3ddfdbcec3b6",
    "resource": {
      "resourceType": "Observation",
      "id": "5e5a4f29-99b8-4d6c-9c1e-3ddfdbcec3b6",
      "meta": {
        "versionId": "1",
        "profile": [ "https://www.ehealth.fgov.be/standards/fhir/StructureDefinition/be-observation-laboratory" ]
      },
      "text": {
        "status": "empty",
        "div": "<div xmlns=\"http://www.w3.org/1999/xhtml\">empty</div>"
      },
      "status": "unknown",
      "code": {
        "text": "Primaire hemostase"
      },
      "subject": {
        "reference": "Patient/1980176"
      },
      "hasMember": [ {
        "reference": "Observation/7c6d2299-f99d-4ea2-a44a-e7c0b00ba57a"
      } ]
    }
  }, {
    "fullUrl": "Observation/b703e9c2-368b-4569-b606-004c5b79d9dc",
    "resource": {
      "resourceType": "Observation",
      "id": "b703e9c2-368b-4569-b606-004c5b79d9dc",
      "meta": {
        "versionId": "1",
        "profile": [ "https://www.ehealth.fgov.be/standards/fhir/StructureDefinition/be-observation-laboratory" ]
      },
      "text": {
        "status": "empty",
        "div": "<div xmlns=\"http://www.w3.org/1999/xhtml\">empty</div>"
      },
      "status": "unknown",
      "code": {
        "coding": [ {
          "system": "http://loinc.org",
          "code": "18720-3"
        } ],
        "text": "BLOEDSTOLLING"
      },
      "subject": {
        "reference": "Patient/1980176"
      },
      "hasMember": [ {
        "reference": "Observation/389060454"
      }, {
        "reference": "Observation/5e5a4f29-99b8-4d6c-9c1e-3ddfdbcec3b6"
      } ]
    }
  }, {
    "fullUrl": "Observation/5faac5a5-8389-40eb-892e-64d591452935",
    "resource": {
      "resourceType": "Observation",
      "id": "5faac5a5-8389-40eb-892e-64d591452935",
      "meta": {
        "versionId": "1",
        "profile": [ "https://www.ehealth.fgov.be/standards/fhir/StructureDefinition/be-observation-laboratory" ]
      },
      "text": {
        "status": "empty",
        "div": "<div xmlns=\"http://www.w3.org/1999/xhtml\">empty</div>"
      },
      "status": "unknown",
      "code": {
        "text": "Ionen"
      },
      "subject": {
        "reference": "Patient/1980176"
      },
      "hasMember": [ {
        "reference": "Observation/389060453"
      } ]
    }
  }, {
    "fullUrl": "Observation/dea6e07e-983b-4283-85dc-5d9c4d6864c8",
    "resource": {
      "resourceType": "Observation",
      "id": "dea6e07e-983b-4283-85dc-5d9c4d6864c8",
      "meta": {
        "versionId": "1",
        "profile": [ "https://www.ehealth.fgov.be/standards/fhir/StructureDefinition/be-observation-laboratory" ]
      },
      "text": {
        "status": "empty",
        "div": "<div xmlns=\"http://www.w3.org/1999/xhtml\">empty</div>"
      },
      "status": "unknown",
      "code": {
        "coding": [ {
          "system": "http://loinc.org",
          "code": "18719-5"
        } ],
        "text": "SCHEIKUNDE"
      },
      "subject": {
        "reference": "Patient/1980176"
      },
      "hasMember": [ {
        "reference": "Observation/5faac5a5-8389-40eb-892e-64d591452935"
      } ]
    }
  }, {
    "fullUrl": "ServiceRequest/275722373",
    "resource": {
      "resourceType": "ServiceRequest",
      "id": "275722373",
      "text": {
        "status": "empty",
        "div": "<div xmlns=\"http://www.w3.org/1999/xhtml\">empty</div>"
      },
      "identifier": [ {
        "system": "https://www.uzgent.be",
        "value": "275722373"
      } ],
      "status": "completed",
      "intent": "order",
      "priority": "routine",
      "subject": {
        "reference": "Patient/1980176"
      }
    }
  }, {
    "fullUrl": "ServiceRequest/274561063",
    "resource": {
      "resourceType": "ServiceRequest",
      "id": "274561063",
      "text": {
        "status": "empty",
        "div": "<div xmlns=\"http://www.w3.org/1999/xhtml\">empty</div>"
      },
      "identifier": [ {
        "system": "https://www.uzgent.be",
        "value": "274561063"
      } ],
      "status": "completed",
      "intent": "order",
      "priority": "routine",
      "subject": {
        "reference": "Patient/1980176"
      }
    }
  }, {
    "fullUrl": "ServiceRequest/275722371",
    "resource": {
      "resourceType": "ServiceRequest",
      "id": "275722371",
      "text": {
        "status": "empty",
        "div": "<div xmlns=\"http://www.w3.org/1999/xhtml\">empty</div>"
      },
      "identifier": [ {
        "system": "https://www.uzgent.be",
        "value": "275722371"
      } ],
      "status": "completed",
      "intent": "order",
      "priority": "routine",
      "subject": {
        "reference": "Patient/1980176"
      }
    }
  }, {
    "fullUrl": "Observation/389060454",
    "resource": {
      "resourceType": "Observation",
      "id": "389060454",
      "meta": {
        "versionId": "1",
        "profile": [ "https://www.ehealth.fgov.be/standards/fhir/StructureDefinition/be-observation-laboratory" ]
      },
      "text": {
        "status": "empty",
        "div": "<div xmlns=\"http://www.w3.org/1999/xhtml\">empty</div>"
      },
      "basedOn": [ {
        "reference": "ServiceRequest/275722373"
      } ],
      "status": "final",
      "code": {
        "coding": [ {
          "system": "http://loinc.org",
          "code": "13592-1",
          "display": "Plaatjesaggregatie (PRP) - XXX geinduceerd (specifieer in boodschap)"
        } ]
      },
      "subject": {
        "reference": "Patient/1980176"
      },
      "issued": "2022-03-02T17:20:30.000+01:00",
      "valueQuantity": {
        "value": 100,
        "system": "http://unitsofmeasure.org",
        "code": "s"
      },
      "note": [ {
        "text": "na Clopidogrel (P2Y12-receptor blockade)"
      } ],
      "specimen": {
        "reference": "Specimen/211207116504"
      }
    }
  }, {
    "fullUrl": "Observation/388108304",
    "resource": {
      "resourceType": "Observation",
      "id": "388108304",
      "meta": {
        "versionId": "1",
        "profile": [ "https://www.ehealth.fgov.be/standards/fhir/StructureDefinition/be-observation-laboratory" ]
      },
      "text": {
        "status": "empty",
        "div": "<div xmlns=\"http://www.w3.org/1999/xhtml\">empty</div>"
      },
      "basedOn": [ {
        "reference": "ServiceRequest/274561063"
      } ],
      "status": "final",
      "code": {
        "coding": [ {
          "system": "https://www.uzgent.be",
          "code": "COLLE"
        } ],
        "text": "Collageen/epinefrine"
      },
      "subject": {
        "reference": "Patient/1980176"
      },
      "issued": "2021-11-25T13:11:58.000+01:00",
      "valueQuantity": {
        "value": 146,
        "system": "http://unitsofmeasure.org",
        "code": "s"
      },
      "specimen": {
        "reference": "Specimen/211207116501"
      },
      "referenceRange": [ {
        "low": {
          "value": 82,
          "system": "http://unitsofmeasure.org",
          "code": "s"
        },
        "high": {
          "value": 150,
          "system": "http://unitsofmeasure.org",
          "code": "s"
        }
      } ]
    }
  }, {
    "fullUrl": "Observation/388108306",
    "resource": {
      "resourceType": "Observation",
      "id": "388108306",
      "meta": {
        "versionId": "1",
        "profile": [ "https://www.ehealth.fgov.be/standards/fhir/StructureDefinition/be-observation-laboratory" ]
      },
      "text": {
        "status": "empty",
        "div": "<div xmlns=\"http://www.w3.org/1999/xhtml\">empty</div>"
      },
      "basedOn": [ {
        "reference": "ServiceRequest/274561063"
      } ],
      "status": "final",
      "code": {
        "coding": [ {
          "system": "https://www.uzgent.be",
          "code": "COLLA"
        } ],
        "text": "Collageen/ADP"
      },
      "subject": {
        "reference": "Patient/1980176"
      },
      "issued": "2021-11-25T13:12:02.000+01:00",
      "valueQuantity": {
        "value": 97,
        "system": "http://unitsofmeasure.org",
        "code": "s"
      },
      "specimen": {
        "reference": "Specimen/211207116501"
      },
      "referenceRange": [ {
        "low": {
          "value": 62,
          "system": "http://unitsofmeasure.org",
          "code": "s"
        },
        "high": {
          "value": 100,
          "system": "http://unitsofmeasure.org",
          "code": "s"
        }
      } ]
    }
  }, {
    "fullUrl": "Observation/388108307",
    "resource": {
      "resourceType": "Observation",
      "id": "388108307",
      "meta": {
        "versionId": "1",
        "profile": [ "https://www.ehealth.fgov.be/standards/fhir/StructureDefinition/be-observation-laboratory" ]
      },
      "text": {
        "status": "empty",
        "div": "<div xmlns=\"http://www.w3.org/1999/xhtml\">empty</div>"
      },
      "basedOn": [ {
        "reference": "ServiceRequest/274561063"
      } ],
      "status": "final",
      "code": {
        "coding": [ {
          "system": "https://www.uzgent.be",
          "code": "COLLBES"
        } ],
        "text": "Besluit"
      },
      "subject": {
        "reference": "Patient/1980176"
      },
      "issued": "2021-11-25T13:12:09.000+01:00",
      "valueString": "Normaal",
      "specimen": {
        "reference": "Specimen/211207116501"
      }
    }
  }, {
    "fullUrl": "Observation/389060453",
    "resource": {
      "resourceType": "Observation",
      "id": "389060453",
      "meta": {
        "versionId": "1",
        "profile": [ "https://www.ehealth.fgov.be/standards/fhir/StructureDefinition/be-observation-laboratory" ]
      },
      "text": {
        "status": "empty",
        "div": "<div xmlns=\"http://www.w3.org/1999/xhtml\">empty</div>"
      },
      "basedOn": [ {
        "reference": "ServiceRequest/275722371"
      } ],
      "status": "final",
      "code": {
        "coding": [ {
          "system": "http://loinc.org",
          "code": "2951-2",
          "display": "Sodium (serum/plasma) [mmol/L]"
        } ]
      },
      "subject": {
        "reference": "Patient/1980176"
      },
      "issued": "2022-03-02T17:09:36.000+01:00",
      "valueQuantity": {
        "value": 140,
        "system": "http://unitsofmeasure.org",
        "code": "mmol/L"
      },
      "specimen": {
        "reference": "Specimen/211207116503"
      },
      "referenceRange": [ {
        "low": {
          "value": 136,
          "system": "http://unitsofmeasure.org",
          "code": "mmol/L"
        },
        "high": {
          "value": 145,
          "system": "http://unitsofmeasure.org",
          "code": "mmol/L"
        }
      } ]
    }
  }, {
    "fullUrl": "Specimen/211207116504",
    "resource": {
      "resourceType": "Specimen",
      "id": "211207116504",
      "meta": {
        "versionId": "1",
        "profile": [ "https://www.ehealth.fgov.be/standards/fhir/StructureDefinition/be-specimen-laboratory" ]
      },
      "text": {
        "status": "empty",
        "div": "<div xmlns=\"http://www.w3.org/1999/xhtml\">empty</div>"
      },
      "identifier": [ {
        "system": "https://www.uzgent.be",
        "value": "211207116504"
      } ],
      "status": "available",
      "type": {
        "coding": [ {
          "system": "http://snomed.info/sct",
          "code": "708048008"
        } ],
        "text": "Citraat (blauw) West"
      },
      "subject": {
        "reference": "Patient/1980176"
      },
      "receivedTime": "2022-03-02T17:20:30+01:00",
      "request": [ {
        "reference": "ServiceRequest/275722373"
      } ],
      "collection": {
        "collectedDateTime": "2021-12-07T00:00:00+01:00"
      }
    }
  }, {
    "fullUrl": "Specimen/211207116501",
    "resource": {
      "resourceType": "Specimen",
      "id": "211207116501",
      "meta": {
        "versionId": "1",
        "profile": [ "https://www.ehealth.fgov.be/standards/fhir/StructureDefinition/be-specimen-laboratory" ]
      },
      "text": {
        "status": "empty",
        "div": "<div xmlns=\"http://www.w3.org/1999/xhtml\">empty</div>"
      },
      "identifier": [ {
        "system": "https://www.uzgent.be",
        "value": "211207116501"
      } ],
      "status": "available",
      "type": {
        "coding": [ {
          "system": "http://snomed.info/sct",
          "code": "708048008"
        } ],
        "text": "Citraat (blauw) West"
      },
      "subject": {
        "reference": "Patient/1980176"
      },
      "receivedTime": "2021-11-25T09:59:52+01:00",
      "request": [ {
        "reference": "ServiceRequest/274561063"
      } ],
      "collection": {
        "collectedDateTime": "2021-12-07T00:00:00+01:00"
      }
    }
  }, {
    "fullUrl": "Specimen/211207116503",
    "resource": {
      "resourceType": "Specimen",
      "id": "211207116503",
      "meta": {
        "versionId": "1",
        "profile": [ "https://www.ehealth.fgov.be/standards/fhir/StructureDefinition/be-specimen-laboratory" ]
      },
      "text": {
        "status": "empty",
        "div": "<div xmlns=\"http://www.w3.org/1999/xhtml\">empty</div>"
      },
      "identifier": [ {
        "system": "https://www.uzgent.be",
        "value": "211207116503"
      } ],
      "status": "available",
      "type": {
        "coding": [ {
          "system": "http://snomed.info/sct",
          "code": "119364003"
        } ],
        "text": "Serum (oker met gel) of Heparine (met gel)"
      },
      "subject": {
        "reference": "Patient/1980176"
      },
      "receivedTime": "2022-03-02T17:09:36+01:00",
      "request": [ {
        "reference": "ServiceRequest/275722371"
      } ],
      "collection": {
        "collectedDateTime": "2021-12-07T00:00:00+01:00"
      }
    }
  } ]
}